locomotion_mode,terrain_info,walk_speed_info,gait_phase,gait_percentage,left_accel_x,left_accel_y,left_accel_z,left_gyro_x,left_gyro_y,left_gyro_z,right_accel_x,right_accel_y,right_accel_z,right_gyro_x,right_gyro_y,right_gyro_z,left_hip_angle,left_knee_angle,right_hip_angle,right_knee_angle,left_hip_angle_vel,left_knee_angle_vel,right_hip_angle_vel,right_knee_angle_vel
301,33,0.9,0,0,692.95652173913,-8220,333.960095294818,-270.566142638037,-39.0666666666667,123.586956521739,-1486,-8052,494,248,-24,152,61.74,68.25,59.58,65.98,0,0,0,0
301,33,0.9,0,0,736,-8212,326,-278,-36,120,-1512.47540983607,-8081,601.923197492163,269.326530612245,-28.9107142857143,138.146078431373,61.74,68.25,59.58,65.98,0,0,0,0
301,33,0.9,0,0,760,-8212,290,-289,-44,129,-1554,-8110,682,280,-35,126,61.74,68.25,59.58,66.0000040708325,0,0,0,0.0200040708324849
301,33,0.9,0,0,741.760188087774,-8219.87837837838,230.796915167095,-291.805659059152,-43,133.191176470588,-1588.52459016393,-8105.47916666667,669,275.5,-36.4415584415584,123.133333333333,61.74,68.25,59.58,66.0493018522288,0,0,0,0.0492977813962909
301,33,0.9,0,0,706,-8234,192,-294,-42,135,-1608,-8096,656,271,-38,122,61.74,68.25,59.58,66.0084716796875,0,0,0,-0.040830172541277
301,33,0.9,0,0,660,-8248,198,-298,-48,126,-1492.13888888889,-8077.79583333333,657.030769230769,276.25,-47.5,125.845070422535,61.74,68.25,59.58,65.9815387746794,0,0,0,-0.0269329050080813
301,33,0.9,0,0,569.770204899558,-8245.40740740741,175.696969696965,-294.684210526315,-50.791900026107,106.355483578511,-1349.99999999999,-8062,660.000000000001,283.000000000001,-57.0000000000005,135.000000000002,61.74,68.25,59.58,66.0028750254427,0,0,0,0.0213362507632837
301,33,0.9,0,0,446.298796586721,-8240.59259259259,132.060606060604,-286.701754385964,-52.7314408436899,76.8159663734498,-1314.86111111111,-8059.01071428571,701.900368493787,285.75,-59.1477272727274,159.545980161125,61.74,68.25,59.58,66.032760024425,0,0,0,0.0298849989822827
301,33,0.9,0,0,328,-8238,102,-277,-56,44,-1284,-8056,786,287,-60,193,61.74,68.25,59.58,66.0498219010788,0,0,0,0.0170618766537842
301,33,0.9,0,0,230,-8270,94,-264,-66,7,-1224,-8044,916,281,-58,221,61.74,68.25,59.58,66.05,0,0,0,0.000178098921225001
301,33,0.9,0,0,220.166666666667,-8220,98,-250.544988666601,-88.6909090909091,-47.9256139577741,-1229.27322404372,-8065,910,265.882134914752,-55.5067750677507,259.109980430528,61.74,68.25,59.58,66.05,0,0,0,0
301,33,0.9,0,0,214,-8170,102,-241,-105,-117,-1244,-8086,904,248,-53,293,61.74,68.25,59.58,66.05,0,0,0,0
301,33,0.9,0,0,204,-8216,66,-238,-13,-203,-1391.37952058636,-8078.76086956522,946.15692821369,236.921664626683,-51.4633123689727,315.157142857143,61.74,68.25,59.58,66.05,0,0,0,0
301,33,0.9,0,0,64,-8296,66,-243,-11,-258,-1590,-8068,1022,224,-49,326,61.74,68.25,59.58,66.05,0,0,0,0
301,33,0.9,0,0,183.777777777802,-8765.34339248025,222.673952641197,-226.759856630821,-75.6612363877562,-293.348004743393,-1688,-8062,1098,195.999999999997,-24.999999999999,304.999999999999,61.74,68.2908093278464,59.58,66.05,0,0.040809327846361,0,0
301,33,0.9,0,0,406.222222222234,-9507.22725179568,572.681238615683,-195.186379928314,-215.211361664383,-320.896224593918,-1628.99999999999,-8070,986.999999999985,185.07029478458,-21.3482328482326,302.91134751773,61.74,68.3169921875,59.58,66.05,0,0.0261828596536304,0,0
301,33,0.9,0,0,526,-9894,936,-174,-348,-332,-1570,-8078,876,176,-19,301,61.74,68.2609375,59.58,66.05,0,-0.0560546874999943,0,0
301,33,0.9,0,0,16,-9744,1262,-169,-444,-308,-1757.67924528302,-8072.17525773196,984,162.364992150707,-16.1350557839108,285.828231292517,61.758984375,68.2721484375,59.58,66.05,0.0189843750000023,0.011210937499996,0,0
301,33,0.9,0,0,48.9484536082474,-9946.86962171528,1064.12214253698,-215,-624.158931977282,-339.776387009472,-1962,-8058,1092,147,-12,257,61.8,68.32,59.58,66.05,0.0410156249999929,0.0478515625,0,0
301,33,0.9,0,0,144,-10444,744,-261,-875,-424,-1982,-8022,1046,131,0,211,61.8,68.32,59.58,66.05,0,0,0,0
301,33,0.9,0,0,646,-11738,510,-232,-1210,-721,-1975.69863013699,-8023,909.127376425856,132,-1.95121951219512,164.181995421626,61.8064599609375,68.32,59.585537109375,66.05,0.00645996093749801,0,0.00553710937499829,0
301,33,0.9,0,0,1009.21852731591,-11950.2400611621,659,-199.666837782341,-1396.74752475248,-1105.18725917684,-1962,-8024,804,133,-5,116,61.8635400390625,68.32,59.634462890625,66.05,0.0570800781250043,0,0.0489257812500057,0
301,33,0.9,0,0,1190,-12022,808,-181,-1482,-1520,-1938,-8024,974,126,-7,65,61.87,68.32,59.64,66.05,0.00645996093749801,0,0.00553710937499829,0
301,33,0.9,0,0,1116.99999999999,-11676.731277533,673.282832441316,-262.01198630138,-1452.21100917431,-1949.09178412559,-1879.88361204013,-8030.28571428571,1010.87888198758,113.445652173912,-4.99999999999973,32.2141005883975,61.87,68.32,59.64,66.05,0,0,0,0
301,33,0.9,0,0,1044,-11214,406,-365,-1414,-2307,-1810,-8040,1024,105,-3,9,61.87,68.370478322817,59.64,66.05,0,0.0504783228170282,0,0
301,33,0.9,0,0,1186,-11038,50,-396,-1402,-2505,-1744.80869565217,-8047.71428571429,918.433884297521,108.802325581395,-8.28947368421053,-5.61089702941305,61.8737440013004,68.4,59.64,66.05,0.00374400130036179,0.0295216771829843,0,0
301,33,0.9,0,0,965,-10884.8245447407,-49.5735147947091,-451.592074568277,-1322.71509678079,-2655.64586177695,-1708,-8052,788,117,-15,-18,61.9166927556349,68.4,59.64,66.05,0.042948754334553,0,0,0
301,33,0.9,0,0,744,-10740,-146,-519,-1179,-2815,-1808,-8020,754,131,-17,-32,61.9588900273974,68.429521677183,59.64,66.05,0.042197271762447,0.0295216771829843,0,0
301,33,0.9,0,0,886,-10596,-454,-584,-976,-3057,-1763.89285714286,-8039,767.240740740741,148.558830030207,-0.5,-65.544776119403,62,68.48,59.64,66.05,0.0411099726026407,0.050478322817014,0,0
301,33,0.9,0,0,1055.79266593174,-10506.5160793376,-424.195711500973,-631.044961880459,-854.737496620708,-3204.48486010963,-1678,-8058,798,164,16,-90,62.0443031830779,68.48,59.64,66.0058314675351,0.0443031830778651,0,0,-0.0441685324648802
301,33,0.9,0,0,1250.27235476424,-10437.5913730021,-358.835867446391,-671.612613030363,-762.590970532576,-3318.50062878218,-1540.10714285714,-8058,876.363575806023,174.69387755102,3.5,-76.0471698113206,62.06,68.48,59.64,65.98,0.0156968169221372,0,0,-0.025831467535113
301,33,0.9,0,0,1480.00000000004,-10410,-293.999999999991,-720.00000000001,-726,-3413.00000000002,-1444,-8058,970.000000000012,180,-9,-55.9999999999978,62.06,68.48,59.64,65.98,0,0,0,0
301,33,0.9,0,0,1790,-10468,-242,-790,-773,-3489,-1460,-8062,1038.52205707962,171.554347826086,1.70992366412355,-47.8332855966483,62.06,68.5012985457057,59.64,65.98,0,0.0212985457056902,0,0
301,33,0.9,0,0,1933.53741221315,-10569.4378022212,-177.73509635093,-845.942537138768,-853.247590290548,-3550.60980100559,-1476,-8066,1076,159,14,-37,62.06,68.56,59.64,65.98,0,0.0587014542943081,0,0
301,33,0.9,0,0,2032.55125260157,-10686.163345555,-110.748743618578,-896.445954646726,-957.884558228543,-3602.91601161391,-1266,-8050,1078,152,16,17,62.06,68.6101406537048,59.64,65.98,0,0.0501406537048439,0,0
301,33,0.9,0,0,2156,-10742,-66,-953,-1062,-3625,-1368.91525423729,-8044.88228999465,1185.88674033149,133.833970716783,10,63.4612452350699,62.06,68.6591605634301,59.64,65.98,0,0.0490199097253026,0,0
301,33,0.9,0,0,2358,-10604,-48,-1025,-1157,-3625,-1530,-8040,1292,106,4,88,62.06,68.7059451728913,59.64,65.98,0,0.0467846094611986,0,0
301,33,0.9,0,0,2362.02645379036,-10361.6822978863,-62.3272601476018,-1035.81468023256,-1141.8458935018,-3611.08784448819,-1663.08474576271,-8022.09523809524,1288.15909090909,64.9882942275748,23,72,62.0378587421128,68.7526968766644,59.6178587421128,65.98,-0.0221412578872417,0.0467517037730261,-0.0221412578872417,0
301,33,0.9,0,0,2363.43445595615,-10027.2471339861,-98.3726937269382,-1042.91860465116,-1100.92238267148,-3574.2342519685,-1738,-8008,1276,24,42,56,62,68.8,59.58,65.98,-0.0378587421127605,0.0473031233356238,-0.0378587421127605,0
301,33,0.9,0,0,2364.62523014386,-9649.18840309283,-145.731780442814,-1046.81322674419,-1041.0376805054,-3521.76353346456,-1550,-8026,1154,-3.42780558980509e-12,38.9999999999996,65.0000000000015,62,68.8615077694427,59.58,65.98,0,0.0615077694427413,0,0
301,33,0.9,0,0,2368,-9275.99999999994,-194.000000000008,-1048,-968.999999999986,-3460.99999999999,-1607.00000000001,-8025,1158,-17.7762622873174,36.3863636363634,74.5663265306132,62,68.8659379403127,59.58,65.98,0,0.00443017086995212,0,0
301,33,0.9,0,0,2398.72891510526,-8867.93446160967,-246.061620616211,-1028.92760180995,-842.303778724126,-3363.44689840598,-1664,-8024,1162,-31,35,80,62,68.7567767845558,59.58,65.98,0,-0.109161155756908,0,0
301,33,0.9,0,0,2460,-8526,-306,-988,-671,-3246,-1624,-8038,904,-39,43,70,62.024404296875,68.5967059705874,59.58,65.98,0.024404296874998,-0.160070813968431,0,0
301,33,0.9,0,0,2568.67833104918,-8363.42324086049,-388.252032520325,-913.129135778698,-485.511657159057,-3145.46996352516,-1665,-8014,894.720338983051,-34.9347826086957,36.5714285714286,75,62.06,68.48,59.58,65.9793758573388,0.0355957031250043,-0.116705970587347,0,-0.000624142661180827
301,33,0.9,0,0,2698,-8210,-440,-827,-301,-3051,-1706,-7990,892,-28,28,80,62.06,68.48,59.58,65.9335253772291,0,0,0,-0.045850480109749
301,33,0.9,0,0,2798,-7944,-428,-769,-152,-2966,-1671.82484076433,-8006,946,-20.5652173913043,24.6785714285714,73.2417582417582,62.0664599609375,68.4726171875,59.58,65.91,0.00645996093749801,-0.00738281249999773,0,-0.0235253772290775
301,33,0.9,4,0,2928.38780860826,-7560.77274489501,-374.484641638225,-718.80731707317,21.6449119020107,-2844.15089327631,-1622,-8022,1000,-16,22,65,62.1235400390625,68.4073828125,59.58,65.91,0.0570800781250043,-0.0652343750000028,0,0
301,33,0.9,4,0,3036,-7178,-330,-665,198,-2701,-1596,-8018,994,-23,19,63,62.13,68.4184241881983,59.58,65.91,0.00645996093749801,0.0110413756983263,0,0
301,33,0.9,4,0,3074.9284328424,-6922.69052981988,-397.839350180514,-597.706981519501,362.68625134004,-2550.19809102508,-1632.00000000001,-7992,982,-27.0000000000003,16,68,62.1304789488468,68.4908910646281,59.58,65.91,0.000478948846811988,0.0724668764298144,0,0
301,33,0.9,4,0,3120,-6666,-512,-509,510,-2387,-1672,-7992,988,-28,21,59,62.1674329959655,68.7607462066584,59.58,65.91,0.0369540471187335,0.269855142030238,0,0
301,33,0.9,4,0,3314,-6294,-606,-363,625,-2208,-1671.410041841,-8001.78054298643,978,-23.6101398601399,21.5909090909091,47.7500000000002,62.1979265378084,68.904703519116,59.58,65.91,0.0304935418428087,0.14395731245763,0,0
301,33,0.9,4,0,3310.83158396947,-5894.49560788882,-581.864864864865,-232.612119574742,609.227941176471,-1986.63943428549,-1670,-8014,968,-19,22,41,62.2128076052207,68.9573293585587,59.58,65.91,0.0148810674123609,0.0526258394427259,0,0
301,33,0.9,4,0,3300.71755725191,-5476.8176049726,-525.972972972973,-109.309305450085,569.941176470588,-1736.76776822258,-1663.12629288703,-8017.61780995475,977.152,-18.614041958042,22.6012349914237,47.76,62.2236526437141,68.9969804317271,59.58,65.8774609375,0.0108450384933434,0.0396510731683861,0,-0.0325390625000068
301,33,0.9,4,0,3282.7447519084,-5093.23079957008,-463.094594594595,5.14816139961442,519.183823529412,-1479.26221804839,-1649.10707949791,-8019.5600361991,998.976,-18.3307972027972,23.2400686106347,63.88,62.2342296119763,69.02374713497,59.58,65.83,0.0105769682621997,0.0267667032428562,0,-0.0474609374999915
301,33,0.9,4,0,3256,-4796,-418,109,469,-1235,-1632.92471966527,-8021.09335746606,1025.024,-18.1405314685315,24.0782847341339,83.12,62.2483064686952,69.0377198646361,59.58,65.83,0.0140768567189582,0.0139727296661079,0,0
301,33,0.9,4,0,3114,-4606,-396,197,417,-1012,-1619.56157322176,-8023.48445248869,1046.848,-18.0335104895105,25.277667238422,99.24,62.2743523888061,69.0275,59.58,65.8190625,0.0260459201109029,-0.0102198646360847,0,-0.0109374999999972
301,33,0.9,4,0,2835.99999999996,-4301.99999999996,-392,332.00000000002,355,-656.999999999942,-1614,-8028,1056,-18,27.0000000000004,106,62.3179057878006,68.9634375,59.58,65.7630078125,0.0435533989944759,-0.0640625000000057,0,-0.0560546874999943
301,33,0.9,4,0,2616.41465488264,-4111.05526278331,-395.40170940171,432.237673311409,354.387841416657,-357.821457829193,-1664,-8050,1020,-20,33,104,62.32,68.9964746590678,59.58,65.76,0.00209421219940253,0.0330371590677743,0,-0.00300781250000171
301,33,0.9,4,0,2419.74339485412,-3961.52400461949,-405.470085470086,518.2334767041,354.082809597217,-81.8677091756637,-1716.38888888889,-8029.27631578947,919.794520547947,-17.6,37.0384615384615,94.0315082644629,62.3204809363237,69.04,59.58,65.76,0.000480936323739911,0.0435253409322343,0,0
301,33,0.9,4,0,2202,-3838,-422,605,354,212,-1746,-8000,844,-12,39,83,62.360139959738,69.04,59.58,65.76,0.0396590234142806,0,0,0
301,33,0.9,4,0,1930,-3740,-486,698,517,551,-1711,-7982.72368421053,852.065326633166,5.6,29,79.5150862068966,62.4052600726552,69.0476171393342,59.58,65.76,0.0451201129172034,0.0076171393341582,0,0
301,33,0.9,4,0,1728.37855884262,-3637.17058371864,-546.248434493945,788.994035604532,671.115771185381,832.557060110428,-1676,-7974,874,20,19,76,62.4422724364267,69.1065933261406,59.58,65.76,0.037012363771467,0.0589761868064187,0,0
301,33,0.9,4,0,1578,-3552,-600,868,828,1105,-1744,-7994,1064.93467336683,13.0996932515337,19.75,66.9006746626687,62.482892778198,69.2075472129982,59.58,65.76,0.0406203417712874,0.100953886857582,0,0
301,33,0.9,4,0,1496.3161142084,-3501.66222144236,-634.641366253276,925.263475004071,1014.12950198052,1423.21972740292,-1812,-8014,1242,-2,22,54,62.5238984710227,69.28,59.58,65.7607861328125,0.0410056928247471,0.0724527870018363,0,0.000786132812493179
301,33,0.9,4,0,1403.99999999998,-3461.99999999999,-682.000000000013,974.000000000009,1180.00000000002,1714.00000000004,-1796,-7994,1195.99999999999,-29.0000000000037,37.0000000000017,39,62.5612783329012,69.28,59.58,65.8137646484375,0.0373798618784917,0,0,0.052978515625
301,33,0.9,4,0,1146,-3426,-878,1019.00000000001,1281.00000000002,1913.00000000003,-1642.37672090111,-8001,1147.48395721925,-46.707203515091,45.8716216216224,43.0751295336793,62.5993287800881,69.2888694176559,59.58,65.83,0.0380504471869116,0.00886941765585902,0,0.0162353515625
301,33,0.9,4,0,1379.64848484852,-3450.6,-858.736040609134,1082.96590909092,1451.12943860389,2086.41630108994,-1502,-8008,1120,-62,50,52,62.6384534463187,69.3411561409434,59.58,65.83,0.039124666230606,0.0522867232875086,0,0
301,33,0.9,4,0,1778,-3510,-812,1123,1595,2259,-1540,-7980,1192,-78,46,68,62.6760485093993,69.4270912611207,59.58,65.8015283203125,0.0375950630805235,0.0859351201772967,0,-0.0284716796874989
301,33,0.9,4,0,2197.62525816827,-3671.38350515464,-670.677518712898,1122.7421875,1654.8775,2463.19039199443,-1581.60739176134,-8001,1259.37226277372,-107.290091264668,44.5714285714286,83.7505557319784,62.7139826945022,69.5268293627563,59.58,65.7601889417592,0.0379341851029551,0.0997381016356087,0,-0.0413393785533032
301,33,0.9,4,0,2466,-3916,-484,1122,1681,2656,-1626,-8022,1296,-146,44,96,62.7562937969719,69.5947434620041,59.58,65.7781481481481,0.0423111024697249,0.0679140992478295,0,0.0179592063889515
301,33,0.9,4,0,2479.12715788414,-4200.70679676668,-341.173927961791,1112.97447916667,1598.02557100298,2797.04061417848,-1674,-8016,1286,-192,63,102,62.8003597257284,69.6508084577574,59.58,65.8089631855748,0.0440659287564316,0.056064995753303,0,0.0308150374266063
301,33,0.9,4,0,2494,-4480,-222,1091,1459,2930,-1658,-8010,1138,-201,75,100,62.8422350184601,69.6790828471408,59.58,65.8292598157887,0.0418752927316817,0.0282743893833555,0,0.0202966302139913
301,33,0.9,4,0,2976,-4674,-140,1026,1346,3084,-1607.56156156157,-8006.17250126839,1008.24251268154,-198.925925925926,71.1241604298604,110.504592592591,62.8859119916098,69.68,59.58,65.83,0.0436769731497435,0.000917152859244652,0,0.000740184211252881
301,33,0.9,4,0,3480.75595695624,-4924.76567028821,-98.4205020920468,946.247899159656,1230.6620911912,3241.51899846257,-1537.44744744744,-8003.19736174531,894.676811896318,-195.074074074074,63.0260986374972,133.231407407409,62.91,69.6807978831671,59.58,65.8293018522288,0.0240880083902013,0.000797883167109603,0,-0.00069814777121735
301,33,0.9,4,0,3766,-5164,-80,878,1102,3340,-1502,-8002,846,-193,56,155,62.91,69.7371382047629,59.58,65.7800040708325,0,0.056340321595755,0,-0.0492977813962909
301,33,0.9,4,0,3646,-5326,-210,843,935,3354,-1564,-8002,900,-201,52,171,62.91765625,69.76,59.58,65.7709375,0.00765624999999659,0.0228617952371337,0,-0.00906657083248774
301,33,0.9,4,0,3850.81481481481,-5482.95060625407,-215.410528478551,820.252839982992,718.818790648008,3338.80499126379,-1592.24126866667,-8010,1014.39293786515,-205.388681881695,54.3125,186.134892086331,62.97029296875,69.76,59.58,65.8269921875,0.0526367187500085,0,0,0.0560546874999943
301,33,0.9,4,0,4231.18518518519,-5647.48704512739,-217.35203040843,801.700723930811,478.3148211402,3301.38776030536,-1614,-8018,1100,-211,60,201,63.02375,69.805,59.58,65.795,0.053457031249998,0.0450000000000017,0,-0.0319921874999949
301,33,0.9,4,0,4436,-5868,-222,779,266,3254,-1638,-7986,1106,-233,75,216,63.05,69.85,59.5779423868313,65.76,0.0262499999999974,0.0449999999999875,-0.00205761316872355,-0.0349999999999966
301,33,0.9,4,0,4420,-6286.49206042648,-296.014925373134,745.962894019442,100.948796599051,3188.28705882091,-1688.28590475421,-7997,942,-239.515837104072,71.6911764705882,226.246028194227,63.05,69.85,59.5355555555556,65.76,0,0,-0.0423868312757207,0
301,33,0.9,4,0,4404,-6760,-366,705,-44,3095,-1748,-8008,778,-242,66,233,63.0564324636724,69.8359375,59.52,65.76,0.00643246367238959,-0.0140624999999943,-0.0155555555555509,0
301,33,0.9,4,0,4502.00000000001,-7106.68246640662,-325.550802139032,656.916968995522,-179.66852530187,2958.87575867839,-1796,-7982,822.000000000008,-231,61,236,63.1014141966645,69.7638671875,59.52,65.76,0.0449817329920776,-0.0720703124999886,0,0
301,33,0.9,4,0,4600,-7406,-244,600,-301,2799,-1762.02091967633,-7986.02150537634,883.339421613403,-238.838041431263,62.80701754386,237.31159882817,63.1507123903073,69.8010339914512,59.52,65.76,0.049298193642862,0.0371668039512372,0,0
301,33,0.9,4,0,4557.1801242236,-7668.69694951488,-123.221925133691,529.411652920301,-410.398137339837,2645.48551024135,-1693.375172686,-7994.04301075269,948.003044140034,-256.009416195858,66.6140350877195,238.197018052078,63.18,69.85,59.52,65.76,0.0292876096926733,0.0489660085487458,0,0
301,33,0.9,4,0,4456,-7900,8,454,-499,2491,-1640,-8000,978,-273,70,240,63.18,69.85,59.52,65.76,0,0,0,0
301,33,0.9,1,0,4224,-8098,98,385,-556,2339,-1611.72646536412,-8002.72580645161,930,-287.324248844376,72.5921052631579,262.363693864643,63.18,69.85,59.52,65.76,0,0,0,0
301,33,0.9,1,0.465116279069767,3954.00966718647,-8233.69198149576,90.327731092437,307.730065666041,-567.122881355932,2156.6338666755,-1598,-8004,882,-300,74,296,63.18,69.85,59.52,65.76,0,0,0,0
301,33,0.9,1,0.930232558139535,3748,-8300,76,233,-571,1960,-1647.60743801653,-8000.45454545455,886.561643835616,-307.933053359684,73,325.313725490196,63.215,69.85,59.52,65.76,0.0350000000000037,0,0,0
301,33,0.9,1,1.3953488372093,3674,-8292,60,172,-522,1760,-1738,-7992,900,-317,72,342,63.25,69.85,59.52,65.76,0.0349999999999966,0,0,0
301,33,0.9,1,1.86046511627907,3558.73639924406,-8312.22222222223,123.158576051793,148.701470391401,-516.161030595813,1588.18987266512,-1832.00000000002,-7972,980,-338.000000000004,84.0000000000009,337.999999999999,63.25,69.85,59.52,65.76,0,0,0,0
301,33,0.9,1,2.32558139534884,3410.80231731546,-8349.77777777778,242.317152103566,133.826872406737,-512.969404186795,1428.12784344374,-1917.90561893114,-7998,958.611111111108,-358.733502538073,87.0000000000002,333.947889861039,63.25,69.8291259765625,59.52,65.76,0,-0.0208740234374858,0,0
301,33,0.9,1,2.7906976744186,3250,-8370,312,117,-512,1258,-2012,-8024,910,-380,90,327,63.25,69.7610107421875,59.52,65.76,0,-0.068115234375,0,0
301,33,0.9,1,3.25581395348837,3072,-8228,318,93,-528,1063,-2142,-7964,812,-403,102,292,63.25,69.76,59.52,65.76,0,-0.00101074218750341,0,0
301,33,0.9,1,3.72093023255814,2898,-8068,226,72,-534,956,-2042.29106029106,-7960.92,854,-421.467591730304,113.612903225806,263.659090909091,63.2493018522288,69.7592021168329,59.5222959495217,65.76,-0.00069814777121735,-0.000797883167109603,0.002295949521681,0
301,33,0.9,1,4.18604651162791,2649.23908194555,-7871.57585414432,110.01724137931,55.4684300341297,-515.548117154812,840.570715311317,-1922,-7960,896,-437,120,249,63.2299959291675,69.7371382047629,59.5674821901079,65.76,-0.0193059230612675,-0.0220639120700241,0.0451862405861974,0
301,33,0.9,1,4.65116279069767,2320,-7682,2,47,-471,736,-1885.03811503811,-7976.07407407407,854,-449.1398899786,118.444444444444,254.666994428056,63.2000040708325,69.7028617952371,59.58,65.76,-0.0299918583350305,-0.0342764095257451,0.0125178098921168,0
301,33,0.9,1,5.11627906976744,1836,-7542,-68,48,-361,662,-1859.51905751906,-8005.92592592593,776,-459.716898394318,115.555555555556,266.111766633891,63.1806981477712,69.6807978831671,59.58,65.76,-0.0193059230612675,-0.0220639120700099,0,0
301,33,0.9,1,5.58139534883721,2514,-22764,-1342,-81,-280,481,-1850,-8022,734,-472,114,275,63.18,69.68,59.58,65.76,-0.00069814777121735,-0.000797883167109603,0,0
301,33,0.9,1,6.04651162790698,3573.48521258747,-20708.8355368402,-1592.57707706013,-192.517494460873,-79.1520270269887,-3.0804506445354,-1851.50844492928,-8020.17887931034,737.750000000001,-487.108607296586,122.257994186048,278.757060610662,63.18,69.6834375,59.58,65.76,0,0.00343750000000398,0,0
301,33,0.9,1,6.51162790697674,4897.11879047267,-15927.0614315747,-1699.58204403782,-300.376661742994,221.364864864894,-746.265956128465,-1855.85585314475,-8015.81034482759,746.000000000001,-504.313813005944,140.604651162792,281.27030322135,63.18,69.7475,59.58,65.76,0,0.0640624999999915,0,0
301,33,0.9,1,6.97674418604651,6057.69297312158,-10494.2566105218,-1807.29598899662,-381.797498153622,494.699324324335,-1427.56848354817,-1862.77533478784,-8010.53663793103,754.25,-524.112112212332,159.39898255814,283.898394221364,63.18,69.7392592592593,59.58,65.76,0,-0.00824074074073167,0,0
301,33,0.9,1,7.44186046511628,6628,-6486,-2060,-414,614,-1726,-1872,-8006,758,-547,169,288,63.18,69.682743484225,59.58,65.76,0,-0.0565157750342991,0,0
301,33,0.9,1,7.90697674418605,6712,-4386,-3392,-293,-94,-1303,-1901.6990974781,-8003.33667354357,755.480350579587,-579.068660776015,170.573643410853,299.944260132317,63.18,69.68,59.58,65.76,0,-0.00274348422496473,0,0
301,33,0.9,1,8.37209302325581,3854.56145142411,-5490.16528225123,-977.71564856521,-65.3322060353798,-139.272277227723,-1112.43086003373,-1957.42822137141,-8000.86491796837,749.405145603619,-617.6274234811,171.62015503876,316.583241177269,63.1773213922247,69.68,59.58,65.76,-0.00267860777529449,0,0,0
301,33,0.9,1,8.83720930232558,232,-7230,2326,90,-153,-1031,-2020,-7996,742,-650,172,325,63.1246041115408,69.68,59.58,65.76,-0.0527172806839005,0,0,0
301,33,0.9,1,9.30232558139535,-844,-8402,3692,-119,-68,-1366,-2090,-7966,732,-671,172,307,63.11,69.68,59.58,65.76,-0.0146041115408053,0,0,0
301,33,0.9,1,9.76744186046512,830.953291651562,-8216.96047430828,1799.67567567543,-145.411072008664,-41.9941860465097,-1575.01303317537,-2039.49038461538,-7966,722.519736842104,-704.76692282538,187.257812500002,282.311936530831,63.11,69.68,59.58,65.76,0,0,0,0
301,33,0.9,1,10.2325581395349,2828,-7922,-404,-154,-32,-1674,-1988,-7966,710,-743,203,265,63.11,69.6364746590678,59.58,65.76,0,-0.04352534093222,0,0
301,33,0.9,1,10.6976744186047,3252,-7716,-804,-27,-97,-1544,-1986.50961538462,-7976.07065217391,684.875,-776.928152932199,203.506893382353,262.431365820178,63.11,69.6,59.58,65.76,0,-0.0364746590677925,0,0
301,33,0.9,1,11.1627906976744,2494,-7743.38934426229,-331.73031496063,51.154462602137,-94.6611842105263,-1497.57142857143,-1986,-8000,644,-810,204,260,63.11,69.6,59.58,65.76,0,0,0,0
301,33,0.9,1,11.6279069767442,1736,-7798,294,88,-88,-1479,-2063.9,-8070.22414551395,563.25,-847.740393978344,209.287018255578,249.794678596656,63.11,69.6,59.58,65.76,0,0,0,0
301,33,0.9,1,12.093023255814,1881.65453296703,-7892.61065573771,583.73031496063,80,23.6611842105263,-1587.5,-2150,-8150,468,-875,220,234,63.11,69.6,59.58,65.76,0,0,0,0
301,33,0.9,1,12.5581395348837,2182,-7960,720,72,131,-1696,-2160,-8186,398,-883,239,216,63.11,69.6,59.58,65.76,0,0,0,0
301,33,0.9,1,13.0232558139535,2739.54635989011,-7858.58536585366,502,79.3285714285715,92.5228873239432,-1680.97983870968,-2310,-8046,316,-905,256,214,63.107421875,69.5965625,59.5798380499207,65.76,-0.00257812499999943,-0.00343750000000398,-0.000161950079302642,0
301,33,0.9,1,13.4883720930233,3192.00000000002,-7744,284,91.0000000000015,37.9999999999943,-1645.99999999999,-2221.96151813416,-8169.43330775137,170.528978165911,-894.705431767335,276.427441204025,194.308366758127,63.059375,69.5325,59.5747708489857,65.76,-0.0480468750000043,-0.0640624999999915,-0.00506720093497393,0
301,33,0.9,1,13.953488372093,3250.35415301442,-7728.31758880757,386.000000000014,98.0945054945061,5.47711267605351,-1558.24275330284,-1994.60455440252,-8497.89992325407,-30.9548995633434,-867.75629530201,298.739637044904,146.889990894708,63.05,69.5428617952371,59.5644444444444,65.76,-0.00937499999999858,0.0103617952371167,-0.0103264045412743,0
301,33,0.9,1,14.4186046511628,3302,-7714,488,107,-11,-1448,-1683.0668316038,-8968.64988488107,-237.703266375561,-830.054442953018,326.138112283771,79.6174316522244,63.05,69.5992021168329,59.5513632189665,65.76,0,0.0563403215957692,-0.0130812254779187,0
301,33,0.9,1,14.8837209302326,3493.73126221309,-7650.09845097262,318.444444444444,126.621667515707,4.4723774053383,-1377.96797595706,-1342.48607253672,-9518.93323100539,-398.96775545852,-787.50172706935,361.82439168176,0.363248273160792,63.05,69.6,59.5380315552216,65.76,0,0.000797883167109603,-0.0133316637448857,0
301,33,0.9,1,15.3488372093023,3786.94264675035,-7556.16033659742,3.55555555555554,159.371540159619,34.6114214773433,-1315.86286394752,-1028,-10086,-464,-746,409,-83,63.05,69.6,59.5269538358795,65.76,0,0,-0.0110777193421825,0
301,33,0.9,1,15.8139534883721,4016,-7508,-166,203,55,-1229,-733.821682537189,-10983.6354566385,301,-692.759755483461,548.996861924686,-221.198398576512,63.05,69.6,59.5206344436097,65.76,0,0,-0.00631939226980904,0
301,33,0.9,1,16.2790697674419,4126,-7566,-146,279,60,-1056,-414,-11604,1066,-652,662,-318,63.068984375,69.6,59.538984375,65.76,0.0189843750000023,0,0.0183499313903539,0
301,33,0.9,1,16.7441860465116,4149.36649071715,-7586.37828947368,-14.855978485986,296.187499999999,69.7656249999996,-905.738283634763,-54,-10880,718,-643,624,-242,63.11,69.6,59.58,65.76,0.041015625,0,0.0410156249999929,0
301,33,0.9,1,17.2093023255814,4160.8081543502,-7601.44736842105,244.484492468599,307.999999999999,83.1249999999989,-767.032640746186,-170,-10380,278,-562,529,-114,63.11,69.6,59.5450205761317,65.76,0,0,-0.0349794238683145,0
301,33,0.9,1,17.6744186046512,4170.84574080815,-7610.7927631579,525.082717188925,314.8125,94.9218750000005,-631.060677484498,-191.026414169199,-10424.0740740741,153.608264193903,-586.370370370375,567.154140266971,-50.4536385534713,63.107421875,69.6,59.522578125,65.76,-0.00257812499999943,0,-0.0224424511316812,0
301,33,0.9,1,18.1395348837209,4190,-7614,720,317,100,-489,-200.962982511708,-10505.9259259259,76.4707987636208,-631.629629629632,657.752724978375,-5.2364898116172,63.059375,69.6,59.570625,65.76,-0.0480468750000043,0,0.0480468749999972,0
301,33,0.9,1,18.6046511627907,4236.13219181853,-7613.09392265193,808.948782114958,301.670842824601,82.5,-334.456899902311,-220,-10550,50,-656,765,47,63.05,69.5837838375486,59.58,65.76,-0.00937499999999858,-0.0162161624513857,0.00937499999999858,0
301,33,0.9,1,19.0697674418605,4314,-7610,890,274,65,-182,-290.023866346335,-10020,446.718811881188,-645.811320754717,902.879163814249,117.772988716763,63.05,69.5250940498165,59.58,65.76,0,-0.0586897877321491,0,0
301,33,0.9,1,19.5348837209302,4458,-7522,1008,246,74,-45,-434,-9490,908,-629,1052,202,63.05,69.4641842324326,59.544404296875,65.76,0,-0.0609098173838305,-0.0355957031249972,0
301,33,0.9,1,20,4202,-7430,1042,189,54,118,-851.014419421082,-9659.49866524293,1016.28118811881,-612.688679245283,1185.83780869862,296.190778012636,63.05,69.44,59.52,65.76,0,-0.0241842324326313,-0.024404296874998,0
301,33,0.9,1,20.4651162790698,3711.98866947232,-7544,859,152.161173316511,66.5,182.577247978584,-1500,-10022,1060,-603,1277,423,63.05,69.44,59.52,65.76,0,0,0,0
301,33,0.9,1,20.9302325581395,3376,-7658,676,131,79,232,-2268,-10626,346,-664,1304,657,63.05,69.44,59.52,65.76,0,0,0,0
301,33,0.9,1,21.3953488372093,3552.00000000002,-7643.3488372093,797.000000000016,125.474789915966,66.9211956521723,293.203007929008,-4445.68574138501,-11399.8598080059,-359.319871336735,-684.787914691945,863.635761589347,1263.74552867783,63.05,69.44,59.52,65.76,0,0,0,0
301,33,0.9,1,21.8604651162791,3728,-7618,918,121,44,354,-6100,-11868,-750,-693,281,1972,63.05,69.431467063311,59.5309541697971,65.7472201352367,0,-0.00853293668896526,0.0109541697971451,-0.0127798647633313
301,33,0.9,1,22.3255813953488,3588.5203504805,-7589.6511627907,827.249422632794,110.392857142857,10.0788043478264,423.15526183264,-4742,-11156,-28,-683,71,2432,63.05,69.4067662274889,59.5567660071792,65.7171063249576,0,-0.0247008358221166,0.0258118373820793,-0.0301138102791043
301,33,0.9,1,22.7906976744186,3350,-7572,628,103,-13,465,-4419.84581456139,-10863.0318716101,1028.5427896638,-825.611602497399,311.69774307637,2552.00532080162,63.05,69.3737496144882,59.577569079222,65.692836074241,0,-0.0330166130006972,0.0208030720427459,-0.0242702507165404
301,33,0.9,1,23.2558139534884,3144,-7612,268,139,9,467,-4266,-10684,1696,-989,760,2638,63.05,69.3335348160149,59.58,65.6961006761833,0,-0.0402147984733006,0.00243092077802487,0.00326460194229128
301,33,0.9,1,23.7209302325581,3267.60236220472,-7608.4375,238.973941368078,209.945945945946,56.7356515383354,474.054667775567,-4188.90697148713,-10538.178599205,1308.1875,-1023.41120781369,1285.964349804,2758.26044687951,63.05,69.28,59.58,65.7234095778724,0,-0.0535348160149169,0,0.027308901689068
301,33,0.9,1,24.1860465116279,3508,-7600,230,259,100,490,-4143.07034782084,-10409.2143104044,455,-1046.4596308261,1933.52923844947,2888.56241119088,63.05,69.2212985457057,59.58,65.751887191474,0,-0.0587014542943081,0,0.0284776136015807
301,33,0.9,1,24.6511627906977,3892.39763779528,-7571.5625,741,252.752159827214,117.403017241379,580.945424291828,-4098.69855024414,-10317.1428664017,-398.1875,-1062.52823842546,2552.82950787021,3022.33316990682,63.0467392937641,69.2,59.5750539385304,65.76,-0.00326070623591335,-0.0212985457056902,-0.00494606146956755,0.00811280852603602
301,33,0.9,1,25.1162790697674,4160,-7548,1252,237.999999999997,125,724.000000000022,-4025.99999999998,-10282,-786,-1076,2994.00000000005,3153.00000000002,63.0019386704511,69.2,59.5284021982495,65.76,-0.0448006233130229,0,-0.0466517402808861,0
301,33,0.9,1,25.5813953488372,3986.97860133709,-7555.55555555556,1134.05509249996,185.07023438124,86.1111111111032,885.404416477329,-3886.19728026653,-10301.2702161729,-650.999999999982,-1086.96958687424,3275.85427776277,3280.82513178594,62.9407760803629,69.2,59.538984375,65.76,-0.0611625900882089,0,0.0105821767504608,0
301,33,0.9,1,26.046511627907,3612.17942489646,-7572.44444444445,872.554629444393,104.590672746176,13.8888888888849,1054.035541572,-3646,-10356,-516,-1097,3436,3404,62.91,69.2,59.58,65.76,-0.0307760803628554,0,0.0410156249999929,0
301,33,0.9,1,26.5116279069767,3252,-7590,606,63,-25,1132,-3102,-10622,-850,-1110,3473,3516,62.91,69.149521677183,59.58,65.7935300902368,0,-0.050478322817014,0,0.0335300902367806
301,33,0.9,1,26.9767441860465,2933.86979421645,-7602.625,320.271354270856,111.290038131554,9.24884437596303,1127.13636363636,-2836.18901354571,-10639.9111111111,-1122.25350365739,-1110.44864742885,3362.89431357016,3580.08812749591,62.9050539385304,69.12,59.58,65.8435548261606,-0.00494606146956755,-0.0295216771829843,0,0.0500247359238415
301,33,0.9,1,27.4418604651163,2724,-7622,146,188,60,1116,-2648.50279079652,-10649.2888888889,-1355.10403642945,-1110.60466559476,3100.5664049181,3628.84183499725,62.8584021982495,69.12,59.58,65.891355661505,-0.0466517402808861,0,0,0.0478008353444039
301,33,0.9,1,27.906976744186,2684,-7698,338,241,88,1093,-2454,-10652,-1470,-1111,2788,3685,62.85,69.12,59.58,65.9368043220467,-0.00840219824954147,0,0,0.0454486605416236
301,33,0.9,1,28.3720930232558,2875.23719165085,-7689,483.34849764415,273.620481927711,95.9838709677419,1108.45493562232,-2161.44378698225,-10639.7946666667,-1487.02016938151,-1123.17307692308,2381.47446884564,3768.86395746553,62.85,69.12,59.58,65.98,0,0,0,0.0431956779533493
301,33,0.9,1,28.8372093023256,3080,-7680,632,289,99,1145,-1982,-10606,-1504,-1135,1934,3848,62.85,69.12,59.6178587421128,66.0313637725075,0,0,0.0378587421127605,0.0513637725075142
301,33,0.9,1,29.3023255813954,3096,-7736,840.000000000022,289,90.9999999999983,1229.00000000001,-2112.01403508774,-10341.3761876047,-1610.4379240785,-1134.175,1543.28054483063,3907.49604743084,62.8454795531853,69.1126171875,59.64,66.05,-0.0045204468147233,-0.00738281249999773,0.0221412578872417,0.018636227492479
301,33,0.9,1,29.7674418604651,3065.11942675158,-7729.4375,960.745559587488,272.647770787742,77.5602389260766,1301.62938795831,-2370,-9902,-1736,-1132,1231,3938,62.7948645221362,69.0473828125,59.64,66.05,-0.0506150310490625,-0.0652343750000028,0,0
301,33,0.9,1,30.2325581395349,2984.31847133757,-7715,1062.16271963332,234.560722100653,60.0752029625393,1370.45439825758,-2762.11880624069,-9474.92646116489,-1800.9756097561,-1122.88212008502,1031.62942164767,3896.37271796622,62.7503340590834,69.04,59.64,66.0903928353348,-0.044530463052844,-0.00738281249999773,0,0.0403928353348277
301,33,0.9,1,30.6976744186047,2871.35828025477,-7700.5625,1131.99851986249,191.193312363237,43.5525655177319,1427.80220942806,-3122,-9014,-1832,-1105,892,3808,62.71,69.04,59.64,66.2,-0.0403340590833778,0,0,0.109607164665192
301,33,0.9,1,31.1627906976744,2744,-7694,1158,159,33,1466,-3302.50457837912,-8506.12798481747,-1815.84795833942,-1059.45400873775,804.343147430597,3668.7987001454,62.6656968169221,69.04,59.64,66.2882739506515,-0.044303183077858,0,0,0.0882739506514838
301,33,0.9,1,31.6279069767442,2527.89416238946,-7733,1108.81914893617,137.219638949672,27.5254237288136,1490.51629327902,-3437.14117807845,-7984.73769968714,-1773.91813890106,-996.060337702208,737.727729768951,3467.03575931182,62.65,69.04,59.6407648806296,66.376333586244,-0.0156968169221372,0,0.000764880629617437,0.0880596355925292
301,33,0.9,1,32.093023255814,2336,-7772,1020,126,25,1502,-3490,-7572,-1716,-964,659,3246,62.65,69.04,59.6526789372483,66.4633491039485,0,0,0.0119140566186573,0.0870155177044438
301,33,0.9,2,32.5581395348837,2282,-7768,930,128,30,1484,-3263.56479217603,-7307.26916809895,-1569.9224932411,-978,553.774264178445,2989.95042401551,62.6286298200645,69.016095667036,59.6744166648978,66.5506175171205,-0.0213701799355377,-0.0239043329639799,0.0217377276495583,0.0872684131720121
301,33,0.9,2,33.0232558139535,2108.26901018132,-7808.93220338984,811.045990783399,133.784307463005,24.4999999999993,1469.1509835194,-2813.99999999992,-7081.99999999996,-1442,-992,417.999999999972,2745.99999999997,62.58,68.96,59.7,66.64,-0.0486298200644626,-0.0560956670360326,0.0255833351021693,0.0893824828795147
301,33,0.9,2,33.4883720930233,1966,-7860,702,145,19,1452,-2214,-6848,-1426,-970,211,2584,62.5540285172443,68.9263197945321,59.7360781172391,66.740608320943,-0.0259714827557218,-0.03368020546786,0.0360781172390858,0.100608320942982
301,33,0.9,2,33.953488372093,1955.64848484848,-7878.06779661017,621.131428571429,176.97311827957,38.5,1413.08585858586,-1782,-6356,-1844,-864,-196,2379,62.5324309336435,68.8971805746258,59.7769106220434,66.8114919999397,-0.0215975836007303,-0.0291392199063836,0.0408325048043068,0.0708836789967648
301,33,0.9,2,34.4186046511628,1952,-7886,580,221,58,1385,-1797.19458627117,-5791.33350749439,-1876.1083032491,-754.531270345463,-493.514640312372,2174.2670509987,62.5207450696908,68.8810418342536,59.8166398281725,66.8536578548969,-0.0116858639527635,-0.0161387403721847,0.0397292061290884,0.0421658549571049
301,33,0.9,2,34.8837209302326,2014,-7866,652,259,58,1396,-1841.27806143123,-5191.30396695305,-1893.05415162455,-640.470313535305,-748.170207283736,1959.91560651829,62.52,68.88,59.82,66.9271491644388,-0.000745069690779587,-0.00104183425357007,0.00336017182751647,0.0734913095419074
301,33,0.9,2,35.3488372093023,1952.589958159,-7876.07142857143,739.774294670846,281.629153742661,38.5,1410.30418719212,-1912,-4624,-1898,-512,-1020,1693,62.52,68.88,59.82,67.02,0,0,0,0.0928508355612365
301,33,0.9,2,35.8139534883721,1806,-7890,792,300,19,1419,-2156,-4126,-1608,-352,-1342,1285,62.52,68.8366796157379,59.8331897487269,67.0890224086688,0,-0.0433203842620884,0.013189748726937,0.0690224086688431
301,33,0.9,2,36.2790697674419,1458,-7896,672,318,19,1397,-2026,-3624,-1468,-250,-1494,1018,62.5120912064382,68.7798370092433,59.8594022873362,67.1504435705583,-0.0079087935617892,-0.0568426064946408,0.0262125386092364,0.06142116188947
301,33,0.9,2,36.7441860465116,1152.48477751751,-7896,709.821158690189,349.748166259175,51.0000000000085,1304.53289473682,-2147.8165938865,-2920.42018374165,-1169.97414149316,-155.810991437275,-1714.27648621724,744.20496990271,62.4611239501673,68.7312210421662,59.8786025544703,67.2170775829141,-0.0509672562708943,-0.0486159670770974,0.0192002671341527,0.0666340123557916
301,33,0.9,2,37.2093023255814,990,-7896,802.000000000019,371,83,1188.99999999999,-2378.00000000004,-2423.99999999998,-905.99999999998,-70.9999999999863,-1853,441.999999999941,62.435291246769,68.6963319596643,59.88,67.3023724470895,-0.0258327033983292,-0.0348890825018628,0.00139744552967613,0.085294864175367
301,33,0.9,2,37.6744186046512,1235.00000000003,-7907.70731707317,1086.26325689427,365.888743455497,73.6347992351803,1114.78633405639,-2714.18340611357,-2321.2563338301,-834.10324538585,-4.23750461424329,-1828.67158671586,66.2207142134482,62.4214728797876,68.6649421972223,59.88,67.4,-0.013818366981404,-0.031389762441961,0,0.0976275529105379
301,33,0.9,2,38.1395348837209,1480,-7926,1466,351,52,1059,-2942,-2282,-766,65,-1777,-346,62.40551017375,68.6440150661228,59.9150359099291,67.4937559327041,-0.0159627060375414,-0.0209271310995831,0.0350359099291282,0.0937559327040702
301,33,0.9,2,38.6046511627907,1364,-7938,1744,268,6,1025,-2850,-2340,-553.341378523338,164.330416762605,-1665.82841328413,-784.884859461021,62.3684349849063,68.64,59.9492799055195,67.5878045063744,-0.0370751888437866,-0.00401506612276137,0.0342439955903302,0.0940485736703636
301,33,0.9,2,39.0697674418605,1104,-7972,1626,223,-30,978,-2758,-2398,-354,273,-1582,-1182,62.2806385894771,68.64,59.966789530291,67.683564145158,-0.0877963954291587,0,0.0175096247714919,0.0957596387835764
301,33,0.9,2,39.5348837209302,860.905924404898,-7996.27019238919,1444.4821802935,198.5899776831,-19.1111111111111,858.817468658311,-2781.99806949807,-2319.66144200627,-286.535433070866,370.52674238012,-1613.28347213325,-1454.81086318679,62.2257703285519,68.64,59.982066954989,67.7783562883394,-0.0548682609252324,0,0.0152774246980698,0.0947921431813654
301,33,0.9,2,40,642.675184424671,-8015.91287397237,1245.57442348008,180.502536011361,1.11111111111111,687.194068450975,-2820,-2188,-258,469,-1683,-1706,62.1862800715463,68.6407133058985,60.0026960597441,67.8688430219553,-0.0394902570055393,0.000713305898486283,0.0206291047550735,0.0904867336159327
301,33,0.9,2,40.4651162790698,548,-8024,1152,160,12,546,-2846,-2080,-464,576,-1815,-2000,62.1537710954549,68.6931138545953,60.0438659179105,67.9579363548077,-0.0325089760914423,0.052400548696852,0.0411698581664268,0.0890933328523857
301,33,0.9,2,40.9302325581395,831.000000000038,-8001,1229.78185328186,130.827964076787,-7.44469026548926,456.900370942823,-2572.99999999996,-2233.4210526316,-385.032258064506,683.210179555754,-1968.18818030224,-2289.80829384639,62.117872167865,68.72,60.06,68.0266534870427,-0.035898927589912,0.0268861454046601,0.0161340820894793,0.068717132234994
301,33,0.9,2,41.3953488372093,1114,-7978,1324,102,-35,392,-2300,-2398,-260,793,-2131,-2554,62.0727241060458,68.72,60.06,68.0722565739329,-0.0451480618192051,0,0,0.0456030868902388
301,33,0.9,2,41.8604651162791,1068,-8002,1346,81,-48,353,-2411.61454531335,-2410.27291676536,-178.484501712021,910.277779760204,-2326.55009761349,-2778.29791368485,62.0266511418269,68.6874609375,60.0781381743245,68.159752450074,-0.046072964218844,-0.0325390624999926,0.0181381743244771,0.087495876141034
301,33,0.9,2,42.3255813953488,895.251037344398,-8021.02715323417,1378.83632717242,50.4123692956763,-46.5,286.37355747038,-2638,-2422,-92,1028,-2462,-2962,62,68.64,60.1238205373624,68.2556369581632,-0.0266511418269246,-0.0474609375000057,0.0456823630378764,0.0958845080892701
301,33,0.9,2,42.7906976744186,756,-8042,1432,14,-45,201,-2972.12796228823,-2520.3323343898,44.2048541123725,1136.94019773487,-2497.79822362559,-3112.63245744139,62,68.64,60.1678378781615,68.2966666748609,0,0,0.0440173407991011,0.0410297166976648
301,33,0.9,2,43.2558139534884,778,-8076,1564,-26,-46,102,-3412.33915652316,-2720.95969828255,202.587237709537,1243.18505496795,-2520.84355625724,-3240.75235206871,61.9890625,68.64,60.18,68.3426712328767,-0.0109375000000043,0,0.0121621218385428,0.0460045580158095
301,33,0.9,2,43.7209302325581,847.433313748532,-8061.48148148148,1479.95669362976,-56.5616907327589,-52.9216757741348,26.5942805699737,-3804,-2946,314,1357,-2529,-3322,61.9330078125,68.64,60.18,68.397551369863,-0.0560546875000014,0,0,0.0548801369863128
301,33,0.9,2,44.1860465116279,955.461222091658,-8034.51851851852,1315.46894281508,-82.0114442494914,-64.1275045537341,-35.9250819372354,-4151.26272912422,-3185.51191461453,376.020252462197,1495.14007436242,-2467.11144300029,-3368.45553923968,61.93,68.64,60.2003215957663,68.4,-0.0030078124999946,0,0.0203215957663332,0.00244863013698193
301,33,0.9,2,44.6511627906977,1048.00000000001,-8020,1201.99999999999,-94.0000000000004,-70,-62,-4465.2980312288,-3462.38866918218,423.232348453325,1642.59894981479,-2335.44510822277,-3402.67221406429,61.9294015876247,68.64,60.2435234289123,68.4005293727515,-0.000598412375332202,0,0.0432018331459787,0.000529372751515211
301,33,0.9,2,45.1162790697674,1118.05604619566,-8021.588099631,1160.92211924966,-95.7626896059878,-69.3749999999998,-51.6874999999975,-4602,-3748,442,1762,-2215,-3416,61.8871463464278,68.64,60.2785520574842,68.4449545446557,-0.0422552411968198,0,0.0350286285719292,0.0444251719041802
301,33,0.9,2,45.5813953488372,1185.38315217392,-8026.06826568266,1127.93077266637,-96.6423022653027,-67.9999999999999,-28.9999999999978,-4598,-4042.37680579405,329.161290322581,1846.1557816757,-2117.76947284248,-3390.6950867052,61.87,68.64,60.3133685618698,68.4997749540723,-0.0171463464278503,0,0.0348165043855175,0.0548204094165641
301,33,0.9,2,46.046511627907,1236.01868206522,-8033.01429889299,1105.97403974989,-97.4507637919664,-66.6249999999999,-6.31249999999918,-4594,-4334,124,1908,-2061,-3338,61.87,68.64,60.3496614351177,68.5501969151868,0,0,0.0362928732479375,0.0504219611145089
301,33,0.9,2,46.5116279069767,1256,-8042,1098,-99,-66,4,-4674,-4596,-88,1946,-2057,-3257,61.87,68.6129045389782,60.448463811184,68.597970132853,0,-0.0270954610217871,0.0988023760663168,0.0477732176662045
301,33,0.9,2,46.9767441860465,1141.7435483871,-8061.08125177406,1127.78927203065,-102.685386884502,-77.6962025316456,-15.4784090909091,-4707.15700293205,-4884.18765129722,-282.597528265157,1977.54411764706,-2134.08294930876,-3107.57268530392,61.8695190636763,68.5553020947836,60.5551491565736,68.644966415632,-0.000480936323739911,-0.0576024441946288,0.106685345389607,0.0469962827790198
301,33,0.9,2,47.4418604651163,950,-8096,1198,-110,-99,-57,-4748,-5098,-442,1994,-2229,-2941,61.829860040262,68.5085972566877,60.5910668549603,68.7035864034195,-0.0396590234142735,-0.0467048380959056,0.0359176983867044,0.0586199877874947
301,33,0.9,2,47.906976744186,754.256451612903,-8196.38461538462,1429.21072796935,-135.998025859868,-126.803797468354,-121.683035412543,-5060.17456616009,-5163.82647241352,-569.120879120879,1972.97773044152,-2260.41705069124,-2823.00064935065,61.7845254987943,68.4602250459277,60.6275593233313,68.72,-0.0453345414677102,-0.0483722107599363,0.036492468370966,0.0164135965805059
301,33,0.9,2,48.3720930232558,636,-8276,1620,-177.000000000007,-145,-216.000000000018,-5606.0000000001,-5236.00000000002,-634,1922.99999999999,-2274,-2696.99999999997,61.7472897719494,68.4098030848132,60.6682175731017,68.72,-0.0372357268449122,-0.0504219611145089,0.0406582497703667,0
301,33,0.9,2,48.8372093023256,934.000000000061,-7993.99999999999,1242,-223.000000000004,-114.999999999997,-352.000000000004,-6274.00000000009,-5540.00000000003,-461.999999999978,1805.99999999998,-2063.99999999996,-2502.99999999996,61.7044880018258,68.352650669101,60.67,68.7929493181355,-0.0428017701235888,-0.0571524157122099,0.00178242689834462,0.0729493181355423
301,33,0.9,2,49.3023255813954,1433.19083328737,-7971.0885286783,1230.78773088576,-237.67557196009,-102.318181818181,-367.151515151516,-6784.8766586905,-5680.76160109338,-336.585492227968,1727.22485553361,-1817.08939232475,-2194.09348200696,61.68,68.32,60.67,68.88,-0.0244880018257732,-0.0326506691010309,0,0.0870506818644543
301,33,0.9,2,49.7674418604651,1772,-7964,1222,-250,-97,-372,-7044,-5810,-274,1646,-1548,-1859,61.68,68.32,60.67,68.88,0,0,0,0
301,33,0.9,2,50.2325581395349,1784,-8004,1184,-273,-124,-342,-6983.88425925926,-6066.4763717605,-390.203856749311,1518.62745562969,-1241.2822420066,-1590.15419560539,61.6653958884592,68.3053958884592,60.67,68.88,-0.0146041115408124,-0.0146041115408195,0,0
301,33,0.9,2,50.6976744186047,1555.79204892966,-8016.9512195122,1153.73776194232,-286.777834008097,-123.5,-343.311881188119,-6848,-6286,-596,1365,-967,-1338,61.6126786077753,68.2526786077753,60.67,68.88,-0.0527172806839005,-0.0527172806838934,0,0
301,33,0.9,2,51.1627906976744,1272,-8022,1118,-297,-123,-347,-6548.55613809173,-6359.9637037037,-811.971467926013,1192.99612713675,-782.143791974906,-1083.19254149935,61.61,68.25,60.67411648,68.88,-0.00267860777528739,-0.00267860777528028,0.00411648000000042,0
301,33,0.9,2,51.6279069767442,1191.67754566493,-8009,1027.36160714286,-304.577962577963,-126.5,-380.658707047176,-6180,-6410,-1000,1022,-642,-840,61.61,68.25,60.68772928,68.88,0,0,0.0136127999999971,0
301,33,0.9,2,52.093023255814,1130,-7996,960,-312,-130,-443,-5918,-6454,-1094,882,-544,-621,61.61,68.25,60.70537408,68.88,0,0,0.0176447999999993,0
301,33,0.9,2,52.5581395348837,1034.5304054054,-8001,1008.35617367708,-320.901860877272,-126.663934426229,-526.621803069062,-5667.55501841923,-6427.52459016393,-1027.48223350253,702.04250778304,-400.429724795847,-428.272179592773,61.61,68.25,60.72129088,68.88,0,0,0.0159167999999994,0
301,33,0.9,2,53.0232558139535,976,-8006,1098,-334,-119,-619,-5428,-6386,-912,511,-251,-257,61.61,68.25,60.72971968,68.88,0,0,0.00842879999999724,0
301,33,0.9,2,53.4883720930233,1370,-7984,1196,-366,-103,-693,-5165.31024092324,-6365.34776390919,-800.937613825707,329.946425346306,-141.265480940041,-101.614398554709,61.628204762874,68.25,60.73,68.88,0.0182047628740065,0,0.000280320000001666,0
301,33,0.9,2,53.953488372093,1630.33353010626,-7979.25792104177,1146.78143712575,-392.476105137395,-131.331967213115,-686,-4986,-6332,-700,164,-28,22,61.6807286790149,68.25,60.7320576131687,68.88,0.0525239161408635,0,0.00205761316872355,0
301,33,0.9,2,54.4186046511628,1756,-7974,1060,-412,-165,-679,-4944,-5976,-636,30,131,97,61.7292835334826,68.25,60.7744444444444,68.88,0.0485548544677314,0,0.0423868312757278,0
301,33,0.9,2,54.8837209302326,1562,-7932,978,-422,-172,-692,-4849.15405904059,-6000,-475.507778520385,-63.9645559868888,290.971620047555,158.235915492958,61.74,68.2375,60.79,68.8675,0.0107164665174011,-0.0125000000000028,0.0155555555555509,-0.0125000000000028
301,33,0.9,2,55.3488372093023,1581.04439252336,-7965,922.807692307692,-423.535526315789,-170.256756756757,-725.281327307909,-4686,-6024,-298,-138,462,190,61.74,68.1734375,60.79,68.8034375,0,-0.0640625000000057,0,-0.0640625000000057
301,33,0.9,3,55.8139534883721,1628,-7998,896,-425,-166,-759,-4317.71511237839,-5972,-171.388679245283,-194.177501545483,691.320591472018,184.051479654747,61.74,68.21,60.79,68.8,0,0.0365625000000165,0,-0.00343749999998977
301,33,0.9,3,56.2790697674419,1780.49226436815,-7990.72058823529,965.027777777787,-434.823026315791,-149.243243243241,-776.682795698926,-3859.99999999993,-5920,-106,-247.000000000011,876.000000000017,166.999999999996,61.7422959495217,68.25,60.79,68.7969387339711,0.002295949521681,0.039999999999992,0,-0.00306126602890799
301,33,0.9,3,56.7441860465116,1990,-7976,1036,-452,-135,-785,-3510,-5926,-312,-311,942,80,61.7874821901079,68.25,60.79,68.7366904131895,0.0451862405861903,0,0,-0.0602483207815965
301,33,0.9,3,57.2093023255814,2192.4633431085,-7949.27941176471,1038.97222222222,-474.032386055344,-160.390728476821,-753.798739088264,-5144,-4842,586,-52.5,749.05973223481,998,61.8,68.2333095868105,60.8046041115408,68.72,0.0125178098921239,-0.0166904131894938,0.0146041115408053,-0.0166904131894938
301,33,0.9,3,57.6744186046512,2310,-7930,1040,-501,-189,-694,-6778,-3758,1484,206,497,1916,61.8,68.1730612660289,60.8573213922247,68.72,0,-0.0602483207816107,0.0527172806839076,0
301,33,0.9,3,58.1395348837209,2272,-8010,806,-531,-193,-622,-5224,-6934,1000,-245,411,1694,61.8,68.2064746590678,60.8280846733157,68.72,0,0.0334133930388987,-0.0292367189090257,0
301,33,0.9,3,58.6046511627907,2285.47402597403,-7963,629.262023735165,-521.280991735537,-187.880597014925,-577.109370122979,-4130.88811188811,-8041.0226822001,266.539162112933,-584.63714911569,747,1275.06960950764,61.799326171875,68.2491015625,60.79,68.7191015625,-0.000673828125002274,0.0426269034322075,-0.0380846733156872,-0.000898437499998295
301,33,0.9,3,59.0697674418605,2322,-7916,540,-510,-179,-538,-3592,-9470,-202,-756,1083,989,61.753916015625,68.1885546875,60.79,68.6585546875,-0.04541015625,-0.060546875,0,-0.060546875
301,33,0.9,3,59.5348837209302,2464,-8006,774,-508,-171,-494,-5034,-22668,1458,-401,497,1818,61.74,68.17,60.776083984375,68.64,-0.0139160156249929,-0.0185546875,-0.0139160156250071,-0.0185546875
301,33,0.9,3,60,2774.03608458722,-7949.50877192981,959.055012224968,-527.65950920246,-173.326530612246,-404.10460478807,-96,-9815.99999999934,1049.99999999988,-442.000000000012,605,956,61.74,68.17,60.730673828125,68.64,0,0,-0.0454101562499929,0
301,33,0.9,3,60.4651162790698,3044.00000000002,-7865.99999999999,1054,-566.000000000007,-179.000000000001,-281.999999999978,-177.241058655234,-6914.66020273228,-1832.92211203819,-950.795775319539,540.074844074835,959.087591240876,61.71,68.17,60.73,68.6,-0.0300000000000011,0,-0.000673828125002274,-0.0400000000000063
301,33,0.9,3,60.9302325581395,3132.87818696885,-7808.49122807017,989.690124858107,-620.681399888461,-201.173469387758,-130.143326161851,-404,-5874,-4388,-1425,418,968,61.68,68.17,60.73,68.56,-0.0300000000000011,0,0,-0.039999999999992
301,33,0.9,3,61.3953488372093,3170,-7778,842,-671,-220,16,-3118.75894134477,-6071.14285714286,-3969.97174293573,-888.260015710919,255.054733389946,1170.41240875912,61.68,68.17,60.73,68.56,0,0,0,0
301,33,0.9,3,61.8604651162791,2574,-7976,534,-692,-206,110,-5688,-6426,-2968,-290,124,1367,61.68,68.1885546875,60.716083984375,68.56,0,0.0185546875,-0.013916015625,0
301,33,0.9,3,62.3255813953488,2758,-8067.67475078274,271.903225806452,-722.10593220339,-368.839264531435,281.701158168171,-5573.68636363636,-6778.3049632006,612.971742935733,-190.239984289081,80.8704225352113,1234.49238148984,61.68,68.2491015625,60.670673828125,68.56,0,0.060546875,-0.0454101562499929,0
301,33,0.9,3,62.7906976744186,2942,-8192,134,-741,-637,526,-5356,-7162,3610,-152,63,994,61.68,68.25,60.67,68.56,0,0.000898437499998295,-0.000673828125002274,0
301,33,0.9,3,63.2558139534884,1838.85714285714,-11891.4468708389,1130,-527,-895.660735468565,975.866638441998,-5140.17212692967,-7645.55217965654,2027.81381011097,-399.5,235.5,706.25146087469,61.68,68.2465625,60.67,68.5565625,0,-0.00343750000000398,0,-0.00343750000000398
301,33,0.9,3,63.7209302325581,566,-15486,2126,-313,-1049,1291,-4808,-7940,-414,-647,408,481,61.68,68.1825,60.67,68.4925,0,-0.0640624999999915,0,-0.0640624999999915
301,33,0.9,3,64.1860465116279,283.142857142836,-12980.9999999997,748.174908308911,-315,-927.368497109811,1251.83072100313,-3957.99999999995,-7334,-1954,-463.999999999964,347.999999999984,421,61.68,68.1907407407407,60.67,68.48,0,0.00824074074073167,0,-0.0125000000000028
301,33,0.9,3,64.6511627906977,170,-10476,-768,-317,-757,1186,-3718.31065088756,-7344.02083333333,-1759.70827067666,-169.610554699507,75.3489932885578,525.000000000014,61.68,68.247256515775,60.67,68.48,0,0.0565157750342991,0,0
301,33,0.9,3,65.1162790697674,394,-11356,-936,-141,-680,1132,-3628,-7360,-1288,22,-152,629,61.68,68.25,60.64,68.44,0,0.00274348422496473,-0.029999999999994,-0.039999999999992
301,33,0.9,3,65.5813953488372,-284.323353293413,-10846,-370.398158803222,-42.203007518797,-718.604651162791,1080.69355372255,-4806,-7373.97916666667,512.708270676683,11.8099415204678,-105.369565217391,489.541871921182,61.68,68.2465625,60.61,68.4,0,-0.00343750000000398,-0.0300000000000082,-0.0400000000000063
301,33,0.9,3,66.046511627907,-1142,-10336,360,3,-760,1009,-5984,-7382,2036,-12,-22,249,61.68,68.1825,60.61,68.4,0,-0.0640624999999915,0,0
301,33,0.9,3,66.5116279069767,-1362.43374217286,-10602.2207234825,612.425387847536,-8.2755212077642,-764.395348837209,793.273024408943,-5461.58760107817,-7225,1024.26081314879,-87.3099415204678,80.8695652173913,-12.7631108592354,61.68,68.17,60.6271463464278,68.4164135965805,0,-0.0125000000000028,0.0171463464278503,0.0164135965805059
301,33,0.9,3,66.9767441860465,-1610,-11192,802,-40,-766,530,-4670,-7068,-78,-149,147,-183,61.68,68.17,60.6694015876247,68.475033584368,0,0,0.0422552411968198,0.0586199877874947
301,33,0.9,3,67.4418604651163,-2674,-12288,994,-187,-650,363,-4079.41239892183,-7183,-222.260813148789,-52.5425764192131,41.8202479338841,-193.634024219842,61.68,68.17,60.67,68.5223529411765,0,0,0.000598412375332202,0.0473193568084724
301,33,0.9,3,67.906976744186,-2194.42460715473,-11758.3749019607,718.999999999963,-340.351376173366,-512.065921797538,70.9940628424977,-3758,-7298,-276,56.0000000000043,-66.0000000000009,-203.000000000003,61.68,68.17,60.67,68.5703887645023,0,0,0,0.0480358233258613
301,33,0.9,3,68.3720930232558,-1146,-10912,444,-512,-365,-305,-4384,-7282,862,71,-69,-238,61.68,68.17,60.67,68.6281945857928,0,0,0,0.057805821290458
301,33,0.9,3,68.8372093023256,979.383600631016,-10166.6250980392,609,-788.525542784161,-246.041617269899,-699.305361543822,-4745.23953974895,-7296,705.49273255814,31,-18,-356.029085717483,61.693916015625,68.17,60.67,68.64,0.0139160156249929,0,0,0.0118054142072026
301,33,0.9,3,69.3023255813954,3308,-9738,774,-970,-71,-1201,-4912,-7310,398,-9,33,-500,61.739326171875,68.17,60.67,68.64,0.0454101562500071,0,0,0
301,33,0.9,3,69.7674418604651,4548,-11702,336,-934,568,-2016,-4522,-7212,0,7,26,-589,61.74,68.17,60.705595703125,68.6029738921767,0.000673828125002274,0,0.0355957031249972,-0.0370261078233227
301,33,0.9,3,70.2325581395349,3378,-14418,174,-867,929,-3161,-4221.08812615956,-7307,-294.379866518354,70.6140547878277,-9.72850183802801,-637.366809503936,61.74,68.17,60.7270278419297,68.5442588315799,0,0,0.0214321388046841,-0.0587150605968247
301,33,0.9,3,70.6976744186046,3380.92971660185,-14024.7237835423,665.037037037037,-889.380587484036,1067.88435478119,-3617.63185595172,-4068,-7402,-442,170,-74,-683,61.74,68.17,60.6905322945476,68.4903633057401,0,0,-0.036495547382124,-0.0538955258397635
301,33,0.9,3,71.1627906976744,3391.41498875925,-13094.5586781958,1576.96296296296,-946.427841634738,1160.38662183504,-3924.64926130919,-4362,-7242,-334,283,-171,-755,61.726083984375,68.17,60.6477333600967,68.48,-0.0139160156250071,0,-0.0427989344508504,-0.0103633057400856
301,33,0.9,3,71.6279069767442,3412,-12001.9999999998,2068,-1023.00000000001,1194,-4037,-4566.00000000002,-7270,12.0000000000344,318.000000000006,-197,-835.000000000018,61.680673828125,68.17,60.6104667878536,68.48,-0.0454101562499929,0,-0.0372665722430696,0
301,33,0.9,3,72.0930232558139,3998.00000000001,-10664,1069.99999999992,-1159,661.999999999918,-4019,-4658.43455497383,-7273.24476792375,185.438277750138,351.02427227475,-192.999999999999,-979.280896915568,61.68,68.17,60.61,68.4364746590678,-0.000673828125002274,0,-0.000466787853639516,-0.04352534093222
301,33,0.9,3,72.5581395348837,4026.79809865709,-10665.3354487761,670.778415401672,-1153.32835820895,232.864437576659,-4123.31931608134,-4698,-7276,262,389,-189,-1124,61.68,68.1665625,60.607421875,68.4,0,-0.00343749999998977,-0.00257812499999943,-0.0364746590677782
301,33,0.9,3,73.0232558139535,4054,-10670,506,-1140,-125,-4262,-4551.125,-7296.29769736842,174.1875,446.004968538796,-204.137340764331,-1213.21586926995,61.68,68.1025,60.559375,68.4,0,-0.0640625000000057,-0.0480468749999972,0
301,33,0.9,3,73.4883720930233,4346,-10942,868,-1110,-400,-4313,-4228,-7334.48684210526,-19.0000000000001,518.639866094835,-239.116242038217,-1285.56734456434,61.68,68.09,60.55,68.3855488986628,0,-0.0125000000000028,-0.00937500000000568,-0.0144511013371869
301,33,0.9,3,73.953488372093,4399.54599406528,-10938.9433962264,1150.03641066454,-1092.40001242082,-785.94716431787,-4277,-3904.875,-7371.43256578947,-212.1875,594.704830603458,-278.287022292994,-1350.13514757655,61.68,68.09,60.55,68.3262350994256,0,0,0,-0.0593137992371737
301,33,0.9,3,74.4186046511628,4418,-10930,1294,-1075,-1208,-4223,-3758,-7388,-300,662,-306,-1416,61.7015656381626,68.1335253409322,60.55,68.2404283819664,0.0215656381626417,0.04352534093222,0,-0.0858067174592776
301,33,0.9,3,74.8837209302326,4365.95994747209,-10703.2543078552,996.075187969925,-1049.3940900032,-1603.58731370411,-4194.51507537688,-3820,-7385,52.6207906295796,729.71091278807,-322.691878980892,-1482.05061163059,61.7520290278057,68.17,60.55,68.1579095451136,0.0504633896430917,0.0364746590677782,0,-0.0825188368527847
301,33,0.9,3,75.3488372093023,4244,-10306,526,-1013,-1972,-4163,-3882,-7382,564,768,-331,-1550,61.8418470587319,68.17,60.55,68.1089761037291,0.0898180309261818,0,0,-0.0489334413844773
301,33,0.9,3,75.8139534883721,3971.99999999996,-9911.99999999993,207.999999999971,-946.999999999994,-2282.00000000001,-4100.99999999999,-3834.48936170212,-7398.96551724138,894.379209370454,757.374999999999,-315.105504587154,-1632.10041690628,61.8956441084893,68.1891450399263,60.531015625,68.0595940386836,0.0537970497574136,0.0191450399262862,-0.0189843750000023,-0.0493820650455064
301,33,0.9,3,76.2790697674419,3749.05075400152,-9558.11802688288,88.841726341665,-919.912433058327,-2325.40579710145,-4023.83609674767,-3728,-7430,1066,738,-286,-1712,61.93,68.25,60.49,68.01,0.0343558915106712,0.060854960073712,-0.0410156249999929,-0.049594038683594
301,33,0.9,3,76.7441860465116,3546.77259519138,-9220.02948476455,13.8124681091057,-901.959617889708,-2349.53623188406,-3936.43135750874,-3503.85373848691,-7464.91448275862,966,715.111842105263,-247.394495412844,-1781.85123005319,61.9783487275454,68.2886435256806,60.49,67.9649403114362,0.0483487275454237,0.0386435256805555,0,-0.045059688563839
301,33,0.9,3,77.2093023255814,3334,-8858,-84,-887,-2357,-3845,-3224,-7498,866,696,-222,-1832,62,68.3287290110527,60.4878477631749,67.9212327991837,0.0216512724545765,0.0400854853721597,-0.00215223682508991,-0.0437075122524391
301,33,0.9,3,77.6744186046512,3053.05291912839,-8427.1025100683,-255.651456890354,-870.254724111867,-2192.75248922722,-3744.90327042909,-3010,-7518,1054,689,-236,-1853,62,68.3761407300418,60.439737706942,67.877829599393,0,0.0474117189890677,-0.0481100562329502,-0.0434031997907738
301,33,0.9,3,78.1395348837209,2759.93360797135,-7966.81262944948,-474.74192612639,-855.405139833711,-1828.28275623223,-3640.16649246132,-3085,-7535.39404761905,1143.25373134328,663.081967213115,-229.17032967033,-1877.21627549277,62,68.4487873737766,60.3980125029368,67.8343666784925,0,0.0726466437348421,-0.0417252040052105,-0.0434629209004385
301,33,0.9,3,78.6046511627907,2594,-7564,-692,-849,-1456,-3550,-3160,-7556,1182,627,-214,-1898,62,68.5501723422155,60.3636040001673,67.7861163771267,0,0.101384968438907,-0.0344085027694376,-0.0482503013658402
301,33,0.9,3,79.0697674418605,2558,-7262,-890,-849,-1135,-3484,-2897.10583941606,-7593.20294567368,1106.49652616952,589.980378890392,-176.79153473645,-1912.69402985075,62.035595703125,68.6494830976347,60.3181381743245,67.6946243849983,0.0355957031250043,0.0993107554191965,-0.0454658258428395,-0.0914919921283683
301,33,0.9,4,79.5348837209302,2492.3675417661,-7225.98537044044,-1058.99269311066,-831.433333333331,-727.769473417468,-3399.67148702584,-2535.99999999996,-7638.00000000001,1015.99999999999,564.999999999999,-144.999999999999,-1920,62.06,68.7502638748557,60.3,67.6118543057787,0.024404296874998,0.100780777220933,-0.0181381743244771,-0.082770079219614
301,33,0.9,4,80,2448,-7194,-1148,-798,-297,-3301,-2380.88417511715,-7680.28052360802,989.191360883808,560.473879793986,-141.525423728813,-1895.06896370054,62.06,68.8511434577078,60.3,67.5637327888091,0,0.100879582852187,0,-0.048121516969573
301,33,0.9,4,80.4651162790698,2463,-6997.38103447063,-1003.68758085382,-762.605128205129,91.8218133741252,-3192.56580716316,-2264.71725534381,-7722.68001345697,970.817902664127,558.117658851241,-139.949152542373,-1841.69348295664,62.06,68.9584049141948,60.2865600350093,67.5196353129643,0,0.107261456486981,-0.013439964990674,-0.0440974758448078
301,33,0.9,4,80.9302325581395,2478,-6748,-776,-714,488,-3060,-2122,-7762,964,554,-136,-1792,62.06,69.0390677856027,60.2441405863518,67.4752047260258,0,0.0806628714079096,-0.042419448657526,-0.0444305869385175
301,33,0.9,4,81.3953488372093,2438,-6612,-622,-630,933,-2867,-1898,-7796,1136,541,-93,-1758,62.0727798647633,69.0107888805409,60.1956624739687,67.412068640756,0.0127798647633384,-0.0282789050617964,-0.0484781123830942,-0.0631360852698322
301,33,0.9,4,81.8604651162791,2500,-6364,-592,-604,1194,-2728,-1810.22932631282,-7812.68367346939,1259.09027300286,530.800682961898,-88.9245991475543,-1691.80556425209,62.1028936750424,68.9419573141887,60.1360728109844,67.3352019103325,0.0301138102790972,-0.0688315663522303,-0.0595896629843438,-0.0768667304234469
301,33,0.9,4,82.3255813953488,2581.25110260734,-5945.08345375968,-486.067858180761,-555.941119904152,1456.93831134383,-2510.87987863593,-1758,-7820,1358,519,-86,-1623,62.127163925759,68.8864824554081,60.0790117868534,67.2632327815523,0.0242702507165333,-0.0554748587806415,-0.0570610241309168,-0.071969128780168
301,33,0.9,4,82.7906976744186,2638,-5456,-392,-488,1668,-2257,-1726,-7802,1436,497,-79,-1583,62.13,68.9215921532847,60.0308173640232,67.2119512704669,0.00283607424103138,0.0351096978766066,-0.0481944228302567,-0.0512815110854632
301,33,0.9,4,83.2558139534884,2646.06765447667,-4998.70762049238,-376.830759330757,-394.153891899013,1777.74886357537,-2007.40910909823,-1748,-7773.99999999999,1592,452.999999999992,-73.9999999999986,-1531.99999999999,62.13,69.04,60,67.17,0,0.118407846715328,-0.0308173640231857,-0.0419512704668819
301,33,0.9,4,83.7209302325581,2656,-4559.99999999993,-369.999999999999,-281.99999999998,1879.00000000002,-1752.99999999995,-1565.48148148144,-7617.42875078465,1547.79331752366,405.876528099745,-44.6332138590149,-1477.81581006732,62.1586523978769,69.1013691368498,60,67.126703788968,0.028652397876904,0.0613691368498053,0,-0.0432962110320005
301,33,0.9,4,84.1860465116279,3026,-4170,-368,-164,2036,-1499,-1226.5185185185,-7371.82548650344,1449.36441282511,359.264909955571,1.79450418160351,-1419.75191759746,62.203503734206,69.12,60,67.0676879238869,0.0448513363290459,0.018630863150193,0,-0.0590158650811503
301,33,0.9,4,84.6511627906977,3408.90370784006,-3922.03117969486,-141.442856603489,-9.45479425591159,2003.24127465857,-1260.80856047211,-1044,-7244,1348,325,26,-1351,62.2529330348056,69.12,60,66.9702240919418,0.0494293005996624,0,0,-0.0974638319450492
301,33,0.9,4,85.1162790697674,3644,-3670,252,116,1924,-983,-1135,-7697,1236.56585111921,301.46334890406,8,-1260.57465824232,62.26,69.1384922305573,59.981015625,66.9123861861891,0.0070669651943831,0.018492230557257,-0.0189843750000023,-0.0578379057527201
301,33,0.9,4,85.5813953488372,3679.13513513513,-3218.01020373047,706.338235294118,169.814106622768,1704.45279381276,-550.77695659556,-1226,-8150,1168,290,-10,-1152,62.26,69.2,59.94,66.87,0,0.0615077694427413,-0.041015625,-0.0423861861890771
301,33,0.9,4,86.046511627907,3692,-2778,992,207,1377,-28,-1036,-7928,1350,290,2,-1026,62.2886523978769,69.2473031233356,59.94,66.7803362076015,0.028652397876904,0.0473031233356238,0,-0.0896637923984827
301,33,0.9,4,86.5116279069767,3373,-2517.33760865366,914.715234720992,233.674034415991,1004.92670471435,558.03531312595,-946.666666666667,-7752.22247263361,1581.93908323281,258.897637795276,2.49551465213635,-913.301640865912,62.333503734206,69.2940548271087,59.9361372834869,66.7035054688573,0.044851336329053,0.0467517037730261,-0.00386271651304781,-0.0768307387442491
301,33,0.9,4,86.9767441860465,3054,-2334,774,265,668,1095,-908,-7662,1722,211,3,-821,62.3829330348056,69.3408394365699,59.894214429921,66.6606744367434,0.0494293005996624,0.0467846094612128,-0.0419228535659002,-0.0428310321139094
301,33,0.9,4,87.4418604651163,3094,-2223.99999999997,627.999999999984,344.000000000018,478.999999999974,1442.00000000006,-922,-7680,1695.99999999999,180.999999999994,21.0000000000015,-760.999999999987,62.39,69.3898593462952,59.867067751226,66.5963898763785,0.0070669651943831,0.0490199097253026,-0.0271466786950469,-0.0642845603649107
301,33,0.9,4,87.9069767441861,3055.15671641791,-2015.15741871955,561.810396471911,483.521830360626,341.343331559889,1774.59123130846,-896.074074074069,-7786.68734032309,1652.5437850496,138.813956606854,28.7288888888898,-673.02074689272,62.39,69.44,59.8510084615858,66.5010629441526,0,0.0501406537048297,-0.016059289640225,-0.095326932225845
301,33,0.9,4,88.3720930232558,2974,-1708,506,643,244,2133,-847.925925925923,-7959.1433571725,1603.38300363591,90.1860433931372,34.0311111111114,-568.620195897678,62.41838523983,69.4987014542943,59.8351331845148,66.4035059495199,0.0283852398299871,0.0587014542943081,-0.0158752770709398,-0.0975569946327539
301,33,0.9,4,88.8372093023256,2848,-1238,428,776,193,2586,-822,-8060,1580,48,36,-474,62.4642059764229,69.52,59.8094100313901,66.3325159204735,0.0458207365929013,0.0212985457056902,-0.0257231531247299,-0.070990029046385
301,33,0.9,4,89.3023255813954,2715.5638541038,-1078.0364298725,267.064085373255,843.239032017452,164.490717019325,2961.05754222864,-938,-8072,1586,18,35,-401,62.5153275810976,69.52,59.7643710649362,66.2838017508785,0.0511216046747052,0,-0.0450389664539372,-0.0487141695949873
301,33,0.9,4,89.7674418604651,2565.20945835153,-974.684881602914,35.3860860791327,891.733690663666,143.300914065218,3298.37969368718,-903,-8063.44827586207,1675.9446439716,-17.6292192294579,42.5,-322.779256410397,62.52,69.52,59.76,66.2410164767622,0.00467241890240899,0,-0.00437106493617279,-0.0427852741163122
301,33,0.9,4,90.2325581395349,2346,-938,-208,960,135,3615,-868,-8040,1772,-60,50,-242,62.5203359201095,69.5204661071986,59.7594650205761,66.1938749523396,0.00033592010950656,0.000466107198633381,-0.000534979423868265,-0.0471415244225426
301,33,0.9,4,90.6976744186046,1862,-1408,-452,1099,305,3908,-1230,-7944,1786,-116,39,-160,62.5499175533427,69.5607975429026,59.7201646090535,66.1058327745566,0.0295816332331853,0.0403314357039477,-0.0393004115226319,-0.0880421777830378
301,33,0.9,4,91.1627906976744,1575.41259209643,-1796.64396707984,-493.261508646395,1194.78291843054,495.059165831909,4094.84268989807,-1573.99028077757,-7903.15879017013,1595.06249999997,-164.982381530989,56.8953488372117,-172.000000000002,62.5921859932249,69.6167134273961,59.7,66.0322456725489,0.0422684398822497,0.0559158844934871,-0.020164609053495,-0.0735871020076644
301,33,0.9,4,91.6279069767442,1442,-2146,-526,1249,728,4229,-1762,-7886,1316,-191,77,-184,62.6375279253439,69.6747704063222,59.7,65.9838535686651,0.0453419321189159,0.0580569789261176,0,-0.0483921038837849
301,33,0.9,4,92.093023255814,1602.29266281946,-2474.62665163768,-613.29017094017,1263.41176470588,1097.6525054922,4335.40453797442,-1419.72200392927,-7969.11682242991,1130.9375,-180.5,80.6046511627907,-170.039808917197,62.6749833085721,69.68,59.7,65.98,0.0374553832282061,0.00522959367782505,0,-0.00385356866513575
301,33,0.9,4,92.5581395348837,1812,-2778,-712,1269,1490,4394,-1034,-8054,1034,-163,82,-140,62.71,69.68,59.7,65.98,0.0350166914279413,0,0,0
301,33,0.9,4,93.0232558139535,1884,-3050,-778,1234,1770,4402,-980,-8056,1040,-149,44,-89,62.7503427313619,69.7346875,59.658984375,65.9321484375,0.0403427313618607,0.0546875000000142,-0.0410156250000071,-0.0478515625000142
301,33,0.9,4,93.4883720930233,2396.53359099669,-3181.44606553456,-776.367088607595,1178.75,2093.76118626431,4372.82252559727,-1151,-8030,1167.6001540832,-149.84375,34.4878048780488,-44.439776733255,62.8073352796298,69.76,59.64,65.91,0.0569925482679778,0.0253124999999841,-0.0189843749999952,-0.0221484374999932
301,33,0.9,4,93.953488372093,3246,-3338,-772,1143,2283,4319,-1322,-8004,1290,-152,31,-5,62.8908123649825,69.76,59.64,65.91,0.0834770853526479,0,0,0
301,33,0.9,4,94.4186046511628,4160,-3898,-756,1170,2106,4261,-1170,-8016,1280,-159.823262448133,38.1267605633803,24.0810810810811,62.941601828958,69.7932118868309,59.64,65.880478322817,0.0507894639754767,0.0332118868308555,0,-0.0295216771829843
301,33,0.9,4,94.8837209302326,4955.48064800946,-3942.37944250872,-515.199852998802,1142.79831932772,1827.01013912394,4192.96215139441,-1018,-8028,1270,-173.000000000002,54.0000000000031,59.0000000000085,62.98,69.85,59.64,65.83,0.0383981710420258,0.0567881131691337,0,-0.050478322817014
301,33,0.9,4,95.3488372093023,5738.00000000015,-3986.00000000002,-121.999999999941,1086.99999999999,1470.99999999993,4153,-1044,-7988,1496.00000000003,-190.000000000004,84.0000000000012,139.000000000014,63.0246524160312,69.85,59.598984375,65.83,0.044652416031191,0,-0.041015625,0
301,33,0.9,4,95.8139534883721,6600,-4456,224,1005,1034,4200,-797.999999999967,-8032.00000000001,1630.98391708364,-237.221901457513,89.2181818181822,217.487729023779,63.0648152953097,69.85,59.58,65.8201974353755,0.0401628792784905,0,-0.0189843750000023,-0.00980256462446505
301,33,0.9,4,96.2790697674419,6784.52307881168,-4759.06248974232,209.990338164251,911.428964697971,530.949403049475,4149.82511923688,-552,-8076,1694,-293,91,301,63.0990258397832,69.85,59.58,65.7657704050478,0.034210544473531,0,0,-0.0544270303277017
301,33,0.9,4,96.7441860465116,6850,-5058,174,807,42,4040,-692.10101010101,-8055.98591549296,1614.54910714286,-332.115217934084,68,411.888596700213,63.1378425717283,69.85,59.58,65.76,0.0388167319451327,0,0,-0.00577040504782644
301,33,0.9,4,97.2093023255814,6543.81578947368,-5491.31242840779,19.2644389058125,679.044302360775,-422.632186396464,3840.25222750641,-932,-8020,1486,-362,45,506,63.18,69.85,59.58,65.76,0.0421574282716577,0,0,0
301,33,0.9,4,97.6744186046512,6070,-6004,-190,557,-727,3571,-1140,-7984,1392,-380,79,548,63.2338192982624,69.85,59.58,65.76,0.0538192982623968,0,0,0
301,33,0.9,4,98.1395348837209,5692.18421052632,-6609.68051025811,-360.254777070064,474.529284257482,-801.198985254479,3287.70888151975,-1148,-7922,1188,-417,104,608,63.25,69.85,59.58,65.76,0.0161807017376034,0,0,0
301,33,0.9,4,98.6046511627907,5482,-7192,-454,394,-859,2996,-1127.25925925926,-7930.53116531165,1189.73226422299,-428.832324529366,96.7407407407415,677.043692481936,63.25,69.85,59.58,65.76,0,0,0,0
301,33,0.9,4,99.0697674418605,5564.00000000001,-7608.00000000007,-151.999999999943,284.999999999982,-955.000000000012,2729.99999999997,-1088.74074074074,-7952.39566395664,1195.90897289042,-435.616581735955,83.2592592592585,750.954559831058,63.274404296875,69.85,59.58,65.76,0.024404296874998,0,0,0
301,33,0.9,4,99.5348837209302,5582,-8032,188,193,-1005,2584,-1068,-7982,1208,-449,76,823,63.31,69.85,59.58,65.76,0.0355957031250043,0,0,0
301,33,0.9,4,100,4966,-8644,682,39,-1004,2328,-1238,-8036,1522,-510,90,890,63.31,69.85,59.58,65.76,0,0,0,0
301,33,0.9,1,0,4600.88577164918,-8569.3125,607.625,-14.2217447106409,-938.077370340826,2033.90062326641,-1331.5,-8043.52074688797,1559.78964518465,-566.817931076391,132.35112936345,914.62135538262,63.31,69.85,59.574462890625,65.76,0,0,-0.0055371093750054,0
301,33,0.9,1,0.581395348837209,4313.02225190591,-8405,421.333333333333,-53.4471064094586,-772.616543238497,1715.68730786211,-1374,-8046,1572,-621,165,937,63.31,69.85,59.525537109375,65.76,0,0,-0.0489257812499986,0
301,33,0.9,1,1.16279069767442,4075.64760620968,-8240.6875,178.375,-77.698914903547,-551.09744451692,1410.63033852675,-1363,-8021.85564466379,1462.13482335977,-684.263263225465,165,993.457177473486,63.31,69.8825390625,59.52,65.76,0,0.032539062500021,-0.00553710937499119,0
301,33,0.9,1,1.74418604651163,3862,-8166,-66,-86,-317,1156,-1352,-7980,1264,-723,165,1040,63.31,69.9292021168329,59.52,65.76,0,0.0466630543328819,0,0
301,33,0.9,1,2.32558139534884,3680,-8340,-330,-40,-31,971,-1563.69342753155,-7939.3588182327,1024.62242915427,-726.378611855823,160.851851851852,1050.71612893602,63.31,69.8728617952371,59.52,65.76,0,-0.0563403215957692,0,0
301,33,0.9,1,2.90697674418605,3274,-8358,-299.999999999992,20,375.000000000026,637.999999999946,-1993.16463284096,-7896.55491112438,761.604387267875,-728.355972594579,153.148148148148,1057.58028669023,63.31,69.85,59.52,65.76,0,-0.0228617952371337,0,0
301,33,0.9,1,3.48837209302326,3411.50000000003,-8257.99999999998,-231.887170588784,-8.59375000000686,502.223516949168,378.245961842864,-2332,-7864,628,-729,149,1060,63.31,69.85,59.52,65.76,0,0,0,0
301,33,0.9,1,4.06976744186047,3714.00000000003,-8037.99999999998,-99.6488071047009,-71.5000000000061,594.254237288143,159.629904363913,-2521.50203382573,-7840.68451584114,612.794288264168,-710.853574504737,163,1007.8395678792,63.31,69.85,59.52,65.7315283203125,0,0,0,-0.0284716796874989
301,33,0.9,1,4.65116279069767,4016.50000000001,-7817.99999999999,124.413959931734,-134.406250000002,650.157838983053,-88.301105297008,-2673.63990580175,-7821.78670236502,603.286033020973,-672.26270456503,189,897.234691313949,63.31,69.849102381437,59.52,65.69,0,-0.000897618563001856,0,-0.0415283203125085
301,33,0.9,1,5.23255813953488,4154,-7718,468,-163,669,-436,-2736,-7814,600,-637,203,797,63.31,69.7857195196418,59.52,65.69,0,-0.0633828617952332,0,0
301,33,0.9,1,5.81395348837209,1921,-13349,5670.14515826934,689.5,496.702472293265,-1313.26678704435,-2638,-7826,620,-614,194,733,63.31,69.76,59.52,65.69,0,-0.0257195196417541,0,0
301,33,0.9,1,6.3953488372093,-312,-18980,10666,1542,182,-1980,-2789.92592592593,-7854.62319457532,631.334393773831,-593.813820558019,182.363138286215,620.64137990248,63.31,69.76,59.52,65.69,0,0,0,0
301,33,0.9,1,6.97674418604651,2593,-15683.3347928962,7673.20371556694,448.6875,-232.202472293265,-1829.51167698368,-3072.07407407407,-7899.03061438168,640.52319367793,-575.567149030157,170.459346920885,474.797599476847,63.2826440056992,69.76,59.52,65.69,-0.0273559943008337,0,0,0
301,33,0.9,1,7.55813953488372,5498,-10377.9999999993,2585.99999999926,-810.000000000059,-504,-1532.99999999995,-3224,-7948.00000000001,660.000000000005,-561.999999999998,165,337.999999999979,63.25,69.7592021168329,59.52,65.69,-0.0326440056991686,-0.000797883167109603,0,0
301,33,0.9,1,8.13953488372093,3519.99999999983,-6562,-1730.00000000021,-1020,-170,-1146,-3043.99999999996,-8002.00000000001,826.000000000022,-554,197.000000000003,227.999999999984,63.25,69.7028617952371,59.52,65.69,0,-0.056340321595755,0,0
301,33,0.9,1,8.72093023255814,2880.34535437267,-7363.00000000011,-2661.09505852399,-952.772832561208,-354.500000000025,-1151.7612312812,-2707.11082101197,-8020.36623690572,952.152326602294,-567.742647058825,208.279919005726,131.38888888888,63.25,69.68,59.52,65.69,0,-0.0228617952371337,0,0
301,33,0.9,1,9.30232558139535,2362,-8164,-2992,-776,-539,-1171,-2330,-8038,1016,-596,214,80,63.25,69.68,59.52,65.69,0,0,0,0
301,33,0.9,1,9.88372093023256,1492,-7182,-692,-173,-152,-1531,-2008.85482664006,-8077.12746261888,856.961206896552,-636.370989304812,215.929089026915,85.5,63.25,69.6531917158933,59.52,65.69,0,-0.0268082841067212,0,0
301,33,0.9,1,10.4651162790698,1964.00840597758,-7531,1475.05350028458,-240.314084507042,42.8614196845146,-1855.11731843575,-1778,-8148,680,-690,218,91,63.25,69.5948388940983,59.52,65.69,0,-0.0583528217950118,0,0
301,33,0.9,1,11.046511627907,2826,-7880,2656,-352,129,-2029,-1686,-8336,658,-755,227,71,63.25,69.5333447594535,59.52,65.69,0,-0.0614941346448177,0,0
301,33,0.9,1,11.6279069767442,3959.99159402242,-7810,1349.27320954907,-462.185915492958,-84.4999999999999,-1783.05523590334,-1763,-8450.51703561965,661.054380664653,-850.55,272.909572271244,44.1649533827393,63.2367969821673,69.52,59.52,65.69,-0.0132030178326517,-0.0133447594534601,0,0
301,33,0.9,1,12.2093023255814,4704,-7740,-272,-528,-298,-1432,-1840,-8616,670,-911,348,9,63.1851851851852,69.52,59.52,65.69,-0.051611796982165,0,0,0
301,33,0.9,1,12.7906976744186,3953.99999999987,-7740,-704,-418.999999999981,-275.999999999994,-1262,-1800.21033422973,-11024.5344374165,884.655776133878,-885.176579925647,457.70970394738,-34.3212728492414,63.18,69.52,59.52,65.69,-0.00518518518518363,0,0,0
301,33,0.9,1,13.3720930232558,3026.5067114093,-7486.99999999997,-469.149572649542,-299.22137599106,-162.355240567802,-1307.00000000001,-1670,-13588,1320,-845,531,-107,63.1798110582408,69.52,59.52,65.69,-0.000188941759191152,0,0,0
301,33,0.9,1,13.953488372093,2472,-7234,-124,-198,-44,-1352,176,-13944,1982,-819,524,-336,63.1618518518518,69.52,59.52,65.69,-0.0179592063889586,0,0,0
301,33,0.9,1,14.5348837209302,2921.19067574646,-7690,109.149572649571,-141.326858248135,-7.28874696731867,-1330.96654553228,117,-12198,969,-877.5,443.562274368231,-234.5395256917,63.1310368144252,69.52,59.52,65.69,-0.0308150374266063,0,0,0
301,33,0.9,1,15.1162790697674,3792,-8146,232,-90,10,-1273,58,-10452,-44,-936,369,-118,63.1107401842113,69.52,59.52,65.69,-0.0202966302139842,0,0,0
301,33,0.9,1,15.6976744186047,4876,-7220,-92,-20,13,-1030,89.5555555555556,-11710,335.396389324961,-878.464285714286,432.5,-100.844433352669,63.11,69.4835253409322,59.52,65.69,-0.000740184211259987,-0.0364746590677925,0,0
301,33,0.9,1,16.2790697674419,4625,-7383,33,27.8859376823439,12.5,-834.721533239278,186,-12968,862,-792,496,-83,63.11,69.44,59.52,65.69,0,-0.0435253409322058,0,0
301,33,0.9,1,16.8604651162791,4374,-7546,158,73,12,-660,916,-11866,1092,-742,453,5,63.11,69.44,59.52,65.69,0,0,0,0
301,33,0.9,1,17.4418604651163,4602.00000000003,-7495.99999999999,63.9999999999875,136.607532026553,35.0000000000031,-498.450761107236,768,-11052,854,-743,458.000000000001,170.000000000021,63.11,69.44,59.52,65.7009375,0,0,0,0.0109374999999972
301,33,0.9,1,18.0232558139535,4830,-7446,-30,189,58,-338,847.851851851868,-11216.8888888889,981.189422586986,-767.913375486764,481.448769006147,272.271051001677,63.11,69.44,59.52,65.7569921875,0,0,0,0.0560546875000085
301,33,0.9,1,18.6046511627907,4720.41818181818,-7467.61821086262,333.694277803415,208.522162794584,57.5,-143.269428152495,996.148148148156,-11523.1111111111,1239.93440072949,-822.590133789535,526.099691707834,351.876281092033,63.145,69.44,59.52,65.76,0.0349999999999966,0,0,0.00300781250000171
301,33,0.9,1,19.1860465116279,4494,-7524,744,228,57,22,1076,-11688,1446,-882,577,417,63.1775994513032,69.44,59.52,65.76,0.032599451303156,0,0,0
301,33,0.9,1,19.7674418604651,4154,-7710,802,276,107,107,854,-11070,1538,-942,636,468,63.1281481481481,69.44,59.52,65.76,-0.0494513031550099,0,0,0
301,33,0.9,1,20.3488372093023,3755.77551020408,-7609.88596491228,455,307.183813215679,134.442125237192,142.301279619587,-141.326888445223,-10972.6859134787,843.70498474059,-1093.71958762887,621.720307917889,724.323471638857,63.11,69.4275,59.52,65.7490625,-0.0181481481481427,-0.0125000000000028,0,-0.0109375000000114
301,33,0.9,1,20.9302325581395,3522,-7508,108,338,163,176,-1838,-10940,-14,-1234,583,1185,63.11,69.3634375,59.52,65.6930078125,0,-0.0640625000000057,0,-0.0560546874999943
301,33,0.9,1,21.5116279069767,3824,-7506,330,384,221,247,-4800.92816537468,-11788.5615010424,-302.70498474059,-1274.26332470893,362.229411505654,1836.24704420972,63.11,69.3964746590678,59.52,65.69,0,0.0330371590677885,0,-0.00300781250000171
301,33,0.9,1,22.093023255814,4174.71016166288,-7513.74535315985,801.288819875871,371.469557195568,194.173988557409,367.816687922783,-6886,-13432.0000000003,-428,-1307.00000000001,-46.0000000000753,2744.00000000018,63.11,69.4393857403934,59.52,65.6891015625,0,0.0429110813256699,0,-0.000898437499998295
301,33,0.9,1,22.6744186046512,4380,-7524,1134,349.999999999997,153.999999999995,502.00000000002,-6700,-15472,472.000000000192,-1358.00000000001,-633,4049.00000000008,63.11,69.3900165292024,59.52,65.6285546875,0,-0.0493692111910491,0,-0.060546875
301,33,0.9,1,23.2558139534884,4209.92592592589,-7528.82307586397,1007.00444444442,327.276342763424,125.283279601625,615.145701645905,-6920.00000000003,-15016.8855622783,2184.12488436651,-1487.77863220417,-268.357014139125,4384.84564732145,63.0974821901079,69.3361116170915,59.52,65.61,-0.0125178098921168,-0.0539049121109372,0,-0.0185546875
301,33,0.9,1,23.8372093023256,3894.07407407406,-7532.5226490431,758.675555555543,303.804838048379,99.9194175785907,720.638406378507,-7140,-14060,3356,-1659,400,4521,63.0522959495217,69.2893818504439,59.52,65.61,-0.0451862405862045,-0.0467297666475588,0,0
301,33,0.9,1,24.4186046511628,3724,-7534,588,293,89,813,-6736,-12546,2342,-1818,1107,4541,63.05,69.2329737431305,59.52,65.61,-0.002295949521681,-0.0564081073134304,0,0
301,33,0.9,1,25,3780.49032258065,-7497,529.62,324,122,881.774318181818,-6129.93969806372,-11366.3546323966,948.463723205655,-1817.78013481364,1846.28546057306,4662.89230769231,63.0492138671875,69.2,59.52,65.61,-0.000786132812500284,-0.0329737431304693,0,0
301,33,0.9,1,25.5813953488372,3900,-7460,504,355,155,957,-5362,-10362,-164,-1817,2546,4769,62.9962353515625,69.2,59.52,65.61,-0.0529785156250071,0,0,0
301,33,0.9,1,26.1627906976744,4153.50967741936,-7484,770.976445396146,341.77380952381,152.562277580071,1085.45856643357,-4396,-9514,-540,-1660,3124,4690,62.98,69.2,59.52,65.61,-0.0162353515624929,0,0,0
301,33,0.9,1,26.7441860465116,4344,-7508,1150,311,145,1253,-3493.61249584579,-9043.41353365297,-671.975287932764,-1515.19425756109,3285.35071503314,4491.31860710147,62.98,69.2,59.52,65.61,0,0,0,0
301,33,0.9,1,27.3255813953488,4269.99999999998,-7504,1330,243.999999999993,80.9999999999939,1458.00000000003,-2731.99999999989,-8733.99999999996,-736.000000000005,-1374.99999999997,3346,4258.99999999997,62.9419153266843,69.2,59.52,65.6535253409322,-0.0380846733156943,0,0,0.04352534093222
301,33,0.9,1,27.906976744186,3979.62169254395,-7533,1118.90396659705,207.525280898873,50.9828060522672,1613.67333245503,-2190.24536617228,-8560.9569892473,-761.603448275864,-1233.01755929906,3142.54512700412,4092.79657204795,62.91,69.2,59.5222959495217,65.69,-0.031915326684306,0,0.00229594952167389,0.0364746590677782
301,33,0.9,1,28.4883720930233,3592,-7562,790,191,38,1722,-1744,-8398,-772,-1096,2783,3958,62.91,69.2,59.5674821901079,65.69,0,0,0.0451862405861974,0
301,33,0.9,1,29.0697674418605,3243.6617723925,-7554,522.096033402925,220.090909090909,63.2263513513513,1775.61215908047,-1356,-8122,-686,-971,2441,3862,62.9015422625148,69.1833095868105,59.58,65.6986407750172,-0.00845773748522305,-0.016690413189508,0.0125178098921239,0.00864077501721283
301,33,0.9,1,29.6511627906977,3028,-7546,372,271,95,1817,-1501.18518518519,-7615.21671997386,-705.26808673959,-858.237875838449,2026.52338150701,3679.83411499044,62.858386058132,69.1230612660289,59.58,65.7483763874393,-0.0431562043827469,-0.0602483207815965,0,0.0497356124221113
301,33,0.9,1,30.2325581395349,3001.89448584203,-7610,421.211565585331,322.909090909091,106.773648648649,1861.63314245995,-1770.81481481481,-6971.37114228141,-751.64728459029,-753.332116213797,1579.01921013335,3434.64512767066,62.8159275938294,69.12,59.58,65.8246143617021,-0.042458464302662,-0.00306126602889378,0,0.0762379742628099
301,33,0.9,2,30.8139534883721,2982,-7674,536,367,112,1904,-1916,-6458,-808,-662,1180,3202,62.77029296875,69.1234375,59.58,65.932938132419,-0.0456346250793658,0.00343750000000398,0,0.108323770716837
301,33,0.9,2,31.3953488372093,2942,-7626,788,388,112,1943,-1910.81481481482,-6092.09406805181,-887.821289501706,-586.937984496128,858.76689247087,3012.11010883572,62.71765625,69.1875,59.58,66.0662475763093,-0.0526367187500014,0.0640624999999915,0,0.133309443890326
301,33,0.9,2,31.9767441860465,2798.58847271816,-7615.88652482269,984.594883543362,368.136976884073,96.5136036510413,1980.71133445003,-1901.18518518518,-5788.60258958144,-989.224616999973,-520.968992248059,571.71549036805,2832.7874691334,62.71,69.2,59.58,66.1941164841001,-0.00765624999999659,0.0125000000000028,0,0.127868907790841
301,33,0.9,2,32.5581395348837,2558.84683337248,-7609.94326241135,1149.07521954946,327.385064879262,67.2494295243095,2015.02233389168,-1896,-5662,-1072,-455,291,2646,62.71,69.2,59.58,66.3209044108634,0,0,0,0.126787926763257
301,33,0.9,2,33.1395348837209,2328,-7608,1218,294,50,2030,-1972.28590971272,-5709.4689119171,-1123.63079988293,-384.355719237435,20.2242199196349,2441.45002176291,62.6964134626754,69.1763497231266,59.58,66.4940468500628,-0.0135865373245707,-0.0236502768734113,0,0.173142439199452
301,33,0.9,2,33.7209302325581,2141.34364285484,-7626.30769230769,1038,275.743215381401,48.6190133130106,2010.96198156682,-2086,-5808,-1166,-317,-267,2231,62.6532598184964,69.1091209616829,59.5815407639778,66.6696930751252,-0.043153644178993,-0.0672287614436442,0.00154076397784308,0.175646225062394
301,33,0.9,2,34.3023255813954,1966,-7664,858,263,47,1980,-2150,-5958,-1204,-259,-629,2022,62.6018406235915,69.0499062247823,59.6184199635819,66.798900057023,-0.0514191949049163,-0.0592147369006852,0.0368791996040443,0.129206981897809
301,33,0.9,2,34.8837209302326,1806,-7720,874,256,24,1957,-2038.16644993498,-6182.8552631579,-1135.55813953488,-211.768127807868,-1060.70525236142,1838.53257761187,62.5570291882738,69.04,59.6586049508669,66.9694850720637,-0.0448114353177402,-0.00990622478225589,0.0401849872850022,0.170585015040658
301,33,0.9,2,35.4651162790698,1641.2672197084,-7754.967517444,1077.76072449952,242.790262172285,32,1902.28554084652,-1900,-6326,-988,-165,-1477,1674,62.5204493290481,69.04,59.6963423039938,67.1615799714096,-0.0365798592256681,0,0.0377373531269143,0.192094899345904
301,33,0.9,2,36.046511627907,1450,-7786,1268,224,40,1826,-1864,-6272,-736,-109,-1793,1533,62.52,68.9529493181356,59.7319800885687,67.2087848937648,-0.000449329048109348,-0.0870506818644543,0.0356377845748526,0.0472049223551778
301,33,0.9,2,36.6279069767442,1169.14025460565,-7820.74340659341,1227.05676855894,190.376404494375,8.4999999999916,1746.16652873933,-2039.39138943254,-5970.98776223768,-401.431141439144,-56.3498485531492,-2095.22191246856,1303.40000767618,62.5173213922247,68.88,59.7677915733768,67.2538073861508,-0.00267860777529449,-0.0729493181355565,0.0358114848081001,0.0450224923859963
301,33,0.9,2,37.2093023255814,869.999999999954,-7860.00000000001,1139.99999999998,167,-23,1647.99999999998,-2342.00000000005,-5515.99999999993,-171.99999999999,-9.99999999999284,-2355.00000000004,1042.99999999996,62.4646041115408,68.88,59.8111459393446,67.3577391829294,-0.0527172806838934,0,0.0433543659678364,0.103931796778568
301,33,0.9,2,37.7906976744186,574.710172744694,-7919.76023056699,951.943231441027,176.777716186254,7.45526315789871,1506.82394606667,-2634.35544601058,-5099.05531293603,-128.442307692305,23.7400064735421,-2535.07020267829,816.236408696594,62.45,68.8650995828211,59.82,67.4254309566254,-0.0146041115408124,-0.0149004171789073,0.00885406065540906,0.0676917736960405
301,33,0.9,2,38.3720930232558,408,-7968,810,198,48,1345,-2886,-4688,-112,58,-2702,590,62.45,68.8038882950354,59.82,67.4655787227378,0,-0.0612112877856532,0,0.0401477661124403
301,33,0.9,2,38.953488372093,788,-7982,872,235,63,1190,-3020,-4326,-178,108,-2904,349,62.4437429362429,68.769200778829,59.8526440056992,67.5116847899562,-0.0062570637570758,-0.0346875162064748,0.0326440056991686,0.0461060672183891
301,33,0.9,2,39.5348837209302,1014.19605412152,-7975.77777777778,1104.4348162663,221.296296296296,40.8985507246376,1121.93379846482,-3074,-3992,-246,161,-3002,163,62.4254455020422,68.7393457104878,59.88,67.5598308764467,-0.0182974342007043,-0.0298550683411207,0.0273559943008337,0.0481460864904477
301,33,0.9,2,40.1162790697674,1185.87580483854,-7964.22222222222,1441.66185257759,192.925925925926,-3.20289855072484,1076.00939344367,-3275.95458769343,-3644.92761818217,-176.654128000265,231.515260184063,-2984.85835744891,-126.319942628258,62.4005590404893,68.7217917950442,59.88,67.6105109027288,-0.0248864615528817,-0.0175539154436848,0,0.0506800262821514
301,33,0.9,2,40.6976744186046,1254,-7958,1614,169,-36,1024,-3580.92804331138,-3303.9496922165,-24.1971448894182,312.75688852733,-2938.60560378671,-480.531557722301,62.3685941002387,68.72,59.8827588399353,67.6574654299676,-0.0319649402506244,-0.00179179504415572,0.00275883993527515,0.0469545272387535
301,33,0.9,2,41.2790697674419,1109.62499999997,-7965.50573394496,1512.43749999998,154.990266393441,-51.4307065217412,956.942523691749,-3776.00000000001,-3037.99999999996,128.000000000022,392.000000000013,-2870.99999999999,-807.00000000005,62.3239193646803,68.72,59.8973572672869,67.7007432755641,-0.0446747355583739,0,0.0145984273516362,0.0432778455965064
301,33,0.9,2,41.8604651162791,791.999999999969,-7983.84862385321,1288.99999999998,143.140710382513,-64.5217391304359,883.390879145143,-3822.00000000001,-2873.99999999997,252.000000000024,464.000000000015,-2711.99999999996,-1065.00000000005,62.2885502445857,68.72,59.9198631846299,67.7436981205982,-0.0353691200946784,0,0.0225059173430324,0.0429548450340747
301,33,0.9,2,42.4418604651163,474.374999999989,-8006.76720183486,1065.56249999999,132.720799180328,-73.6019021739134,801.393795025963,-3925.35375147225,-2743.20498176449,431.143773694981,561.279357111028,-2455.85514396491,-1416.71204879378,62.2518865712372,68.72,59.9464190530936,67.789648640848,-0.0366636733485137,0,0.0265558684636957,0.0459505202498747
301,33,0.9,2,43.0232558139535,330,-8028,964,123,-77,709,-4070.61104164272,-2622.43855645602,622.682997958599,676.157878603809,-2125.29919051621,-1819.41062813377,62.2070906361476,68.72,59.992506270903,67.8405421914358,-0.0447959350895957,0,0.0460872178093652,0.0508935505877304
301,33,0.9,2,43.6046511627907,423.210549258936,-8049.42022588852,1137.06997742664,116.011023628928,-53,580.86919657774,-4198,-2466,712,796,-1778,-2182,62.1615504807692,68.72,60,67.8930859375,-0.0455401553783261,0,0.00749372909699275,0.0525437460642451
301,33,0.9,2,44.1860465116279,630,-8066,1404,106,-29,464,-4305.63270890339,-2129.62295081967,663.441860465116,918.108035569838,-1418.54382029695,-2465.16738053067,62.13,68.72,60,67.93,-0.0315504807692264,0,0,0.0369140625000028
301,33,0.9,2,44.7674418604651,1016,-8072,1572,58,-61,406,-4364,-1888,596,1047,-1054,-2729,62.13,68.72,60.0262547638734,67.93,0,0,0.0262547638734461,0
301,33,0.9,2,45.3488372093023,1011.56403081584,-8070.89212827988,1552.80841874599,16.6092821985127,-71.6207693161296,387.554139370831,-4026.89616252822,-2013.63310745402,568.739957716702,1189.35943330144,-680.44283613099,-3014.99694412107,62.1278477631749,68.7165625,60.0671930793233,67.93,-0.00215223682508991,-0.00343750000000398,0.0409383154498499,0
301,33,0.9,2,45.9302325581395,998.383504080005,-8068.03498542274,1501.66071554785,-25.9338200757612,-80.4823610116312,376.199510506722,-3500,-2186,540,1324,-389,-3276,62.079737706942,68.6525,60.1050907921421,67.93,-0.0481100562329502,-0.0640624999999915,0.0378977128188538,0
301,33,0.9,2,46.5116279069767,976.649491017474,-8064.12827988338,1428.19745125142,-66.8883040074307,-87.6304135099425,369.084832188756,-3153.99999999997,-2258,475.999999999981,1427.00000000002,-254.999999999985,-3471.00000000003,62.0330282783475,68.6628617952371,60.1412998669189,67.9462161624514,-0.0467094285945109,0.0103617952371309,0.036209074776778,0.0162161624513999
301,33,0.9,2,47.093023255814,946.553062853232,-8059.87172011662,1342.05918670257,-103.513166781083,-93.1105652344976,363.358823198019,-3018,-1920,130,1598,-193,-3661,62.0003818751803,68.7192021168329,60.1763808454493,68.0049059501835,-0.0326464031671563,0.056340321595755,0.0350809785304094,0.0586897877321348
301,33,0.9,2,47.6744186046512,908.285290812253,-8055.96501457726,1252.88648274715,-133.067405581327,-96.9684546087344,356.170202315591,-3142,-1907.62931034483,-204.328696248386,1680.18718079673,-197.359375,-3779.16778860798,62,68.68361328125,60.213556161613,68.0547415488174,-0.00038187518029531,-0.0355888355828853,0.0371753161636832,0.0498355986338197
301,33,0.9,2,48.2558139534884,862.037246119516,-8053.10787172012,1170.31990023101,-152.810017592765,-99.2497200560897,344.667688322557,-3266,-1904,-520,1716,-209,-3847,61.9943257622649,68.6246892663264,60.2529638671875,68.1051319374278,-0.00567423773510711,-0.0589240149235621,0.0394077055744901,0.0503903886104808
301,33,0.9,2,48.8372093023256,808,-8052,1104,-160,-100,326,-3130.66666666667,-2128.9705788419,-858.919319955969,1713.15047377424,-340.375596207752,-3872.6589275843,61.9398647614812,68.5736534874146,60.2961767578125,68.1555717288539,-0.0544610007836823,-0.0510357789118387,0.0432128906249929,0.0504397914261006
301,33,0.9,2,49.4186046511628,630.99931820244,-8085,1041.25424029837,-158.5,-81.2741935483871,264.493673683058,-2879.33333333333,-2578.83004657268,-1181.15451186179,1705.41205865959,-617.376192415504,-3889.77390823659,61.9196253015997,68.5309806567314,60.3,68.2017339190171,-0.0202394598815303,-0.042672830683216,0.00382324218749375,0.0461621901631446
301,33,0.9,2,50,476,-8118,1006,-157,-57,167,-2744,-2916,-1342,1694,-908,-3896,61.9095229280461,68.4930918608288,60.3,68.2455294261869,-0.0101023735536074,-0.0378887959025747,0,0.0437955071697758
301,33,0.9,2,50.5813953488372,468,-8072,1214,-162,-49,54,-3449.36899365367,-3020.91137666469,-1367.97886108714,1668.66323688829,-1243.20510598486,-3761.64253393665,61.9030300021522,68.4581480182583,60.3147420758199,68.2902089649225,-0.00649292589390171,-0.0349438425705131,0.0147420758198535,0.0446795387355934
301,33,0.9,2,51.1627906976744,539.000000000019,-8065.31552214547,1223.59410350853,-178.411092530662,-69.7480000000065,-21.7098978892894,-4648.00000000018,-3150.00000000004,-1378,1618.99999999999,-1457,-3527.99999999996,61.8979888851593,68.424758019955,60.3549012030848,68.3350451622258,-0.00504111699288501,-0.0333899983032921,0.0401591272649355,0.0448361973033258
301,33,0.9,2,51.7441860465116,610,-8060,1232,-206.000000000005,-106.000000000006,-90.0000000000134,-5664.00000000009,-3830.00000000011,-861.999999999983,1492.99999999997,-1463,-3315.99999999996,61.8922419383088,68.3915307568541,60.4027372781264,68.3810442280352,-0.00574694685053601,-0.0332272631009261,0.0478360750416584,0.045999065809454
301,33,0.9,2,52.3255813953488,565.999999999994,-8048.51856375183,1366.20863309354,-249.944799658999,-138.600159509205,-167.809750020731,-6008.46027101069,-4457.73587610059,-791.26489778164,1333.79291897743,-1409.92307692307,-3102.81352237237,61.8836315228419,68.3570751198907,60.4460571397228,68.4365350162867,-0.00861041546686891,-0.0344556369633864,0.0433198615963235,0.0554907882514186
301,33,0.9,2,52.9069767441861,522,-8026,1492,-300,-174,-248,-6302,-4960,-768,1165,-1295,-2877,61.87,68.32,60.49,68.48,-0.0136315228418837,-0.0370751198907016,0.0439428602772409,0.0434649837133492
301,33,0.9,2,53.4883720930233,668,-7936,1304,-339,-213,-329,-6889.63771969647,-5250.10207702912,-840,1007.97474372681,-1096.18442782677,-2610.44839252345,61.8279195897018,68.275261562567,60.5344901937107,68.48,-0.0420804102981549,-0.0447384374329829,0.0444901937106934,0
301,33,0.9,2,54.0697674418605,217,-7957.29032258064,913.776119402985,-338.45,-177.089887640449,-504.598812227421,-7478,-5516,-912,854,-826,-2345,61.7942936683491,68.2430252891001,60.55,68.4844802291034,-0.0336259213527228,-0.0322362734669213,0.0155098062892947,0.00448022910336476
301,33,0.9,2,54.6511627906977,-234,-7984,640,-337,-119,-712,-7814,-5890,-878,702,-527,-2125,61.7802756642363,68.2254027893708,60.55,68.5374525039421,-0.0140180041128275,-0.0176224997292991,0,0.0529722748387798
301,33,0.9,2,55.2325581395349,130.592334494773,-7990.10748763833,755.2,-327.55,-65.9101123595506,-891.457532281205,-7736.01538461538,-6409.91054423038,-643.238039924737,517.06027561272,-179.365813364326,-1887.21112934328,61.7710272901142,68.2129731263283,60.568984375,68.5898593462952,-0.00924837412208035,-0.0124296630425391,0.0189843750000023,0.0524068423530224
301,33,0.9,2,55.8139534883721,670.000000000062,-7998,1000.00000000005,-319,-35,-1026.00000000001,-7539.99999999996,-6954.00000000009,-315.999999999957,323.999999999968,167.000000000056,-1606.99999999994,61.7627301341513,68.2012188563121,60.61,68.64,-0.00829715596294989,-0.0117542700161124,0.041015625,0.0501406537048297
301,33,0.9,2,56.3953488372093,966.000000000002,-8092,1400,-354.000000000006,-60.0000000000061,-1086.00000000001,-6980,-7398,-100,145.999999999971,462.000000000032,-1210.99999999994,61.7515657845158,68.1856225356622,60.61,68.6987014542943,-0.0111643496354645,-0.0155963206499479,0,0.0587014542943081
301,33,0.9,2,56.9767441860465,972.212624584718,-8061.86363636363,1323.53260869564,-391.91666666667,-132.169117647067,-1133.13168462103,-7010,-7315.99999999999,-180.000000000011,-22.1340002389064,627.993697479005,-897.728971546668,61.7310892752507,68.1581190336676,60.61,68.72,-0.0204765092650661,-0.0275035019945449,0,0.0212985457056902
301,33,0.9,2,57.5581395348837,974,-8024,1190,-424,-190,-1184,-7040,-7234,-260,-158,704,-608,61.6869997323275,68.0993329764366,60.61,68.72,-0.0440895429232597,-0.0587860572310035,0,0
301,33,0.9,2,58.1395348837209,809,-8014.24926686217,1065.20438278969,-446.146147403685,-194.433823529412,-1263.81722514998,-6501.96301564723,-7378,-144.923076923077,-252.565692631264,686.136761487965,-296.617489923818,61.68,68.09,60.628984375,68.72,-0.00699973232747197,-0.00933297643663877,0.0189843750000023,0
301,33,0.9,2,58.7209302325581,644,-8004,940,-459,-196,-1353,-5858,-7522,12,-309,646,-9,61.68,68.09,60.67,68.72,0,0,0.041015625,0
301,33,0.9,2,59.3023255813954,926,-7970,832,-462,-117,-1431,-5718,-7180,76,-325,568,216,61.68,68.09,60.67,68.72,0,0,0,0
301,33,0.9,2,59.8837209302326,1320,-7968,892,-477,-94,-1514,-7913,-1982.00653447499,1205.45491018795,256,273.059288537549,984.765544041451,61.68,68.09,60.67,68.71490234375,0,0,0,-0.00509765625000114
301,33,0.9,2,60.4651162790698,1763.33036479547,-7870.11460446247,1006,-486.861778846154,-130.339130434783,-1500.25454545455,-10108,2924,2640,837,35,1593,61.68,68.09,60.67,68.65728515625,0,0,0,-0.0576171875
301,33,0.9,2,61.046511627907,2244.00000000009,-7774,1084,-492,-178.000000000004,-1465.99999999999,-2837.99999999932,-14488,3174,-1031.00000000019,1338.00000000007,1037.99999999994,61.6515283203125,68.09,60.67,68.6045026973874,-0.0284716796874989,0,0,-0.0527824588625805
301,33,0.9,3,61.6279069767442,2761.19304811719,-7949.00000000002,820.999999999965,-492.490056818182,-193.217260542662,-1364.53607954544,541.990710382782,-10178.5898259422,230.920256644893,-2001.03722847132,1648.40184623975,696.802517985583,61.61,68.09,60.6694650205761,68.5553315149038,-0.0415283203125014,0,-0.000534979423868265,-0.0491711824835761
301,33,0.9,3,62.2093023255814,3316,-8124,558,-493,-209,-1184,2000,-5542,-3498,-2434,1761,536,61.61,68.09,60.6301646090535,68.511364804202,0,0,-0.0393004115226319,-0.0439667107018096
301,33,0.9,3,62.7906976744186,4070.87108013937,-7934,818,-506.883380681818,-265.943609022556,-856.49751059322,236.789695550327,-5025.41017405719,-4918.92025664527,-1959.7611138251,709,1186,61.61,68.09,60.61,68.4632865726039,0,0,-0.0201646090535021,-0.0480782315981116
301,33,0.9,3,63.3720930232558,4540,-7744,1078,-536,-311,-506,-2588,-4836,-5554,-1237,-343,1836,61.61,68.09,60.61,68.4052295936778,0,0,0,-0.0580569789260892
301,33,0.9,3,63.953488372093,3735.20844041676,-7888.43448589624,849.514650638662,-602.360937499993,-282.306122448984,-262.156731326951,-5094.78969555016,-4891.66389366126,-3773.53038442207,-687.738886174931,-167.610552763853,1746.64534883723,61.61,68.09,60.61,68.4,0,0,0,-0.00522959367782505
301,33,0.9,3,64.5348837209302,2562,-8078,474,-653,-247,-122,-6540,-5074,-344,-387,117,1554,61.61,68.09,60.61,68.4,0,0,0,0
301,33,0.9,3,65.1162790697674,1950,-8144,186,-624,-238,-99,-5366,-7690,3846,-762,327,1225,61.61,68.1446875,60.568984375,68.3559075342466,0,0.0546875,-0.041015625,-0.0440924657534367
301,33,0.9,3,65.6976744186046,2044.87629831436,-8928.70946382454,291.713968957912,-643.000000000005,-256.423604960149,-67.7991391218812,-4882,-8108,3510,-1149,589,980,61.61,68.1587970690006,60.55,68.2996234201127,0,0.0141095690006097,-0.0189843750000023,-0.0562841141338737
301,33,0.9,3,66.2790697674419,2312,-10240,578,-662,-314,-8,-4412.28267537456,-7924.44444444448,1800.71298022731,-1091.34908001082,567.577235772362,775.234345041974,61.61,68.0965947486261,60.55,68.2537995087119,0,-0.0622023203745101,0,-0.0458239114008308
301,33,0.9,3,66.8604651162791,3554,-11522,1686,-623,-831,306,-3980.47451109913,-7583.55555555552,-837.754620997887,-956.364826688265,512.154471544707,596.910721453836,61.61,68.119521677183,60.55,68.25,0,0.0229269285568847,0,-0.00379950871186452
301,33,0.9,3,67.4418604651163,1019.00000000067,-12690.4757871763,1713.92348518354,-554.215679732102,-819.641160949872,550.334404406658,-3758,-7400,-2206,-801,436,492,61.61,68.17,60.55,68.25,0,0.050478322817014,0,0
301,33,0.9,3,68.0232558139535,-1516,-13320,1722,-481,-790,675,-3707.83345327438,-7736.00000000009,-1741.98019148217,-595.423322723645,239.475609756054,460.731084782041,61.61,68.17,60.55,68.1953125,0,0,0,-0.0546875000000142
301,33,0.9,3,68.6046511627907,-655.999999999771,-12447.9999999998,561.999999999691,-438.042881234128,-611.858839050089,507.999999999955,-3688,-8072,-791.999999999655,-419.999999999969,84,425.999999999979,61.61,68.17,60.55,68.17,0,0,0,-0.0253124999999841
301,33,0.9,3,69.1860465116279,204,-11576,-598,-384,-452,341,-5168,-7440,596,-360,97,260,61.61,68.17,60.55,68.17,0,0,0,0
301,33,0.9,3,69.7674418604651,-12,-12874,-42,-219,-511,394,-5394.33033707868,-7006.13685734969,335.557298772079,-399.00000000001,162.49188998591,28.7755102040383,61.61,68.17,60.55,68.17,0,0,0,0
301,33,0.9,3,70.3488372093023,-752.622993294234,-11919.0000000003,587.03376513048,-178.711538461544,-586.135966238732,371.027397260282,-5470,-6794,-168,-438,218,-180,61.61,68.17,60.55,68.17,0,0,0,0
301,33,0.9,3,70.9302325581395,-1644,-10964,952,-159,-675,316,-4572,-7308,-790,-414,203,-290,61.61,68.2246875,60.55,68.2246875,0,0.0546875,0,0.0546875
301,33,0.9,3,71.5116279069768,-2254.1136631889,-12210.9999999997,890.000000000016,-147.866330390922,-777.933995560574,174.91924908123,-3412,-8216,-1166,-245,99,-403,61.61,68.2387970690006,60.55,68.25,0,0.0141095690006097,0,0.0253124999999983
301,33,0.9,3,72.0930232558139,-2650,-13458,828,-141,-900,-44,-3580,-7752,-1158,-90,5,-403,61.61,68.1765947486261,60.55,68.25,0,-0.0622023203745101,0,0
301,33,0.9,3,72.6744186046512,-2780,-12558,1892,-137,-1056,-311,-3780.8252723311,-7734.52635310921,-948.775928567738,29.9984394240886,-21.3803975112011,-439.049363846062,61.61,68.17,60.55,68.2784716796875,0,-0.00659474862609954,0,0.0284716796875131
301,33,0.9,3,73.2558139534884,-1074.07823129257,-11759.9189189189,1059,-299.885370885277,-998.177657949993,-859.107492699698,-3979.85708061,-7728.12888175736,-574.276853172757,133.77171328531,-36.2544079411854,-516.876505469922,61.6106981477712,68.17,60.5505984123753,68.3193018522288,0.00069814777121735,0,0.000598412375332202,0.0408301725412628
301,33,0.9,3,73.8372093023256,1428,-11334,226,-514,-856,-1612,-4070,-7714,-374,225,-57,-591,61.6599959291675,68.17,60.5928536535722,68.2700040708325,0.049297781396298,0,0.0422552411968269,-0.0492977813962909
301,33,0.9,3,74.4186046511628,3104.80574451976,-12205.7258989491,346.555912825984,-611.907488796523,-265.960401011015,-2531.37517770007,-3952.00000000003,-7604.84260550018,-569.999999999948,305.13451408315,-100.047341894256,-644.234385832832,61.68,68.1587970690006,60.61,68.25,0.0200040708324849,-0.0112029309993886,0.0171463464278432,-0.0200040708324849
301,33,0.9,3,75,4550.73620559344,-13997.4517978988,672.445158985405,-686.398188842718,735.383221222792,-3589.39339139221,-3834,-7470,-766,374,-151,-697,61.68,68.0965947486261,60.61,68.25,0,-0.0622023203745101,0,0
301,33,0.9,3,75.5813953488372,5166,-15474,1150,-716,1501,-4550,-4194,-7412,-708,431,-195,-756,61.6515283203125,68.09,60.585595703125,68.25,-0.0284716796874989,-0.00659474862609954,-0.024404296874998,0
301,33,0.9,3,76.1627906976744,4326.99999999978,-16398.8083636822,2797.87459807112,-574.999999999962,1919.01910037064,-5495.30398142701,-4532,-7422,-138,480,-224,-902,61.61,68.09,60.55,68.25,-0.0415283203125014,0,-0.0355957031250043,0
301,33,0.9,3,76.7441860465116,3488,-16870,4178,-434,2121,-6024,-4702,-7428,274,482,-210,-1032,61.61,68.09,60.55,68.25,0,0,0,0
301,33,0.9,3,77.3255813953488,5982,-12664,3042,-896,1701,-5976,-4572.13150419673,-7439.664,207.647999999983,486.199324532573,-205.335772511848,-1160.46111925805,61.61,68.09,60.55,68.2411374770361,0,0,0,-0.00886252296386658
301,33,0.9,3,77.9069767441861,5927.92806391236,-12075.392431488,2540.92870406562,-893.031249999999,1109.40840998676,-5977.5625,-4261.91451259018,-7456.87200000001,49.4239999999478,492.92692666631,-201.697744075828,-1292.32653845687,61.61,68.09,60.55,68.1808640156154,0,0,0,-0.0602734614206923
301,33,0.9,3,78.4883720930232,5778.97483709968,-11762.993267779,2150.99218139173,-886.5,400.140568723526,-5981,-3890.43176888539,-7477.248,-139.424000000013,501.954866533758,-199.091829383886,-1416.86139802664,61.6419153266843,68.09,60.5226440056992,68.132029867147,0.031915326684306,0,-0.0273559943008266,-0.0488341484684156
301,33,0.9,3,79.0697674418605,5555.0341917371,-11546.5974701804,1898.05956802187,-879.968749999999,-265.447556901693,-5984.4375,-3576.76601678699,-7498.416,-297.648000000026,513.055204267474,-197.523943127962,-1523.33083839763,61.68,68.09,60.49,68.0853020947836,0.0380846733156943,0,-0.0326440056991686,-0.0467277723634254
301,33,0.9,3,79.6511627906977,5276,-11246,1808,-877,-726,-5986,-3440,-7518,-364,526,-197,-1601,61.68,68.09,60.49,68.0385972566877,0,0,0,-0.0467048380959199
301,33,0.9,3,80.2325581395349,4648.57209364512,-10810.3556147613,1838.00000000001,-946.978260869587,-1005.25659515883,-5838.11663336659,-3432.84452469256,-7538.25,6.00000000009868,553.447761194036,-206.500000000003,-1645.31199690081,61.689375,68.1025,60.49,67.9899779798505,0.00937500000000568,0.0125000000000028,0,-0.0486192768371723
301,33,0.9,3,80.8139534883721,3914,-10342,1868,-1051,-1161,-5611,-3430,-7554,376,574,-216,-1689,61.737421875,68.1665625,60.49,67.9392986582389,0.0480468749999972,0.0640624999999915,0,-0.0506793216116108
301,33,0.9,3,81.3953488372093,3484,-9860,1378,-1109,-1197,-5470,-3559.00000000003,-7559.7,357.944148936164,568.499999999999,-199.81481481481,-1779.31919766122,61.74,68.17,60.49,67.8967025531927,0.00257812499999943,0.00343750000000398,0,-0.0425961050462291
301,33,0.9,3,81.9767441860465,3154.6149463728,-9345.91867137582,903.17309538592,-1149.85175552665,-1130.17892503539,-5307.48001158561,-3688,-7566,314,563,-178,-1863,61.7410189165753,68.170449793057,60.4893018522288,67.8556595766424,0.00101891657534736,0.000449793057029524,-0.00069814777121735,-0.0410429765502585
301,33,0.9,3,82.5581395348837,2920,-8960,536,-1170,-957,-5131,-3110.40681998397,-7602.55000000001,168.237627197002,595.651488616472,-167.185185185184,-1904.79148936171,61.8202515056964,68.2113436160185,60.4400040708325,67.8126380652353,0.0792325891210979,0.0408938229614506,-0.049297781396298,-0.0430215114070762
301,33,0.9,3,83.1395348837209,2801.99999999995,-8811.99999999994,355.999999999965,-1131.99999999998,-399.99999999983,-4940.99999999996,-2417.99999999992,-7634,-3.43643707384589e-11,642.00000000001,-162,-1924,61.8906586082608,68.2804480810748,60.42,67.7494607708983,0.0704071025643529,0.0691044650563128,-0.0200040708324849,-0.0631772943370805
301,33,0.9,3,83.7209302325581,2584,-8584,288,-1085,19,-4862,-2266,-7550,-74,664,-212,-1870,61.9285188924698,68.380360680137,60.42,67.6494532259747,0.0378602842090032,0.0999125990621934,0,-0.100007544923599
301,33,0.9,3,84.3023255813954,2474.59210288546,-8291.54208635977,438.370370370401,-1059.61901803945,593.327072380102,-4709.76016736447,-2535.00000000007,-7562.21292775666,220.562423199903,672.516949152543,-214.313253012048,-1870.4512195122,61.93,68.4823452987439,60.4022457029689,67.5478507572046,0.00148110753019637,0.101984618606892,-0.0177542970311109,-0.101602468770082
301,33,0.9,4,84.8837209302326,2396.4925347021,-7929.19510774342,717.629629629599,-1040.83615090325,1194.71909174551,-4494.01534027839,-2804,-7594,744,676,-215,-1872,61.93,68.5908971456345,60.3546906845042,67.4642414959522,0,0.108551846890663,-0.0475550184647346,-0.0836092612524055
301,33,0.9,4,85.4651162790698,2330,-7450,868,-1019,1473,-4259,-2592,-7698,1250,587,-136,-1922,61.93,68.6851337819751,60.2736472981157,67.4202614359252,0,0.0942366363405114,-0.0810433863884725,-0.043980060026982
301,33,0.9,4,86.046511627907,2256.18597088883,-6615.6604090244,783.277631578974,-989.109985474784,1452.6348773842,-4024.45768140013,-1976.30536065128,-7763.29484029483,1213.63128491621,503.543298264893,-103.514501160098,-1886.95652173914,61.9432030178326,68.7457013104114,60.2200755978605,67.3788034981229,0.0132030178326445,0.0605675284363656,-0.0535717002551834,-0.0414579378022779
301,33,0.9,4,86.6279069767442,2216,-5588,614,-954,1399,-3733,-1506,-7798,1126,448,-90,-1818,61.9948148148148,68.7867092820303,60.1898195469865,67.3352852940579,0.0516117969821721,0.0410079716188818,-0.0302560508739589,-0.0435182040649806
301,33,0.9,4,87.2093023255814,2722.19425763049,-4612.13771845665,369.605049985344,-916.139100909199,1137.57004064865,-3277.6605898093,-1590.99999999998,-7802.78424801005,804.368715083873,429.923652694613,-104.499999999996,-1715.22931361198,62,68.8429738921767,60.1563370125993,67.274930834195,0.00518518518518363,0.0562646101463571,-0.0334825343872183,-0.0603544598628787
301,33,0.9,4,87.7906976744186,3388,-3690,108,-868,739,-2741,-1676,-7808,534,420,-119,-1623,62,68.8791362662437,60.1226743123414,67.1957255779274,0,0.0361623740670325,-0.0336627002579135,-0.0792052562676133
301,33,0.9,4,88.3720930232558,3622,-2932,-68,-789,389,-2226,-1670,-7856,616,415,-95,-1590,62,68.797037037037,60.0835565176336,67.1196829599979,0,-0.0820992292066478,-0.039117794707785,-0.0760426179295024
301,33,0.9,4,88.953488372093,3176,-1488,-504,-622,17,-1507,-1226.32907133255,-7928.08418891169,774.000580230682,402.196459610877,-45.0607779578715,-1522.07014331517,62,68.6561682945154,60.0223683914384,67.0673960505715,0,-0.140868742521647,-0.0611881261952476,-0.0522869094263996
301,33,0.9,4,89.5348837209302,2546.76661114998,-1125.86485037859,-739.353915662699,-449.477442365868,-332.820036853634,-769.015649081011,-788,-7974,962,380,-10,-1423,62,68.5633836992515,59.9435422333119,67.0286598192433,0,-0.0927845952639359,-0.0788261581264749,-0.038736231328258
301,33,0.9,4,90.1162790697674,1775.21603530803,-918.755003436328,-932.759036144587,-273.739090934299,-682.867810536506,-18.8409578594635,-845.555555555544,-7970.85814116003,1161.19272216532,334.478875616463,-20.3703703703683,-1278.1657479735,62.0223663578047,68.56,59.94,66.9833979284998,0.0223663578047066,-0.00338369925145798,-0.0035422333119044,-0.045261890743447
301,33,0.9,4,90.6976744186046,917.057441811784,-759.267654775822,-1063.78463855424,-96.6311940355189,-952.231678951226,713.504212292075,-952.444444444456,-7964.1607267645,1356.15191663825,266.58758668102,-39.6296296296317,-1098.49478581456,62.0673857996354,68.5775263760467,59.9379423868313,66.9267725341268,0.0450194418306467,0.0175263760467033,-0.00205761316873065,-0.0566253943730004
301,33,0.9,4,91.2790697674419,28,-540,-1112,80,-1060,1398,-1010,-7958,1444,201,-50,-944,62.1028163175686,68.9521616321854,59.8955555555556,66.8441527879482,0.0354305179332499,0.374635256138731,-0.0423868312757136,-0.0826197461786222
301,33,0.9,4,91.8604651162791,-1162.74449482873,-128.760314341769,-913.65023112475,270.752048931188,-942.851556264924,2049.81698704347,-956.608147785645,-7952.8679245283,1184.99999999993,140.777142938564,-7.49999999998867,-840.590726972517,62.1583814715758,69.1456136228436,59.88,66.7511610657674,0.0555651540072333,0.193451990658119,-0.0155555555555509,-0.0929917221808267
301,33,0.9,4,92.4418604651163,-1942.00000000002,140,-675.999999999972,432.000000000041,-720.999999999926,2599.00000000016,-859.999999999969,-7950,926,93.9999999999896,35,-741.99999999996,62.2477149932161,69.1861707688875,59.88,66.6536482349294,0.0893335216402136,0.0405571460439944,0,-0.0975128308379567
301,33,0.9,4,93.0232558139535,-1978,80,-624,524,-463,2968,-740.178107640287,-7962.29093847005,930.474861863342,72.9622948646547,27.48148148148,-624.416917481177,62.2924163943544,69.3606660212972,59.88,66.6047276512815,0.044701401138397,0.174495252409642,0,-0.0489205836479414
301,33,0.9,4,93.6046511627907,-1633.11933414993,34.8048780487743,-816.077696756405,642.082014701881,-73.070448460622,3439.15535312683,-608.200164931237,-7993.69298805121,944.727501504464,58.5821575333341,13.5185185185155,-495.899597211453,62.3279985645155,69.5340224849457,59.88,66.5563484229656,0.0355821701610566,0.173356463648503,0,-0.048379228315838
301,33,0.9,4,94.1860465116279,-1144,12,-1092,768,374,3941,-546,-8036,970,36,6,-356,62.3699992204569,69.5795444017285,59.88,66.4592317577032,0.0420006559413864,0.0455219167828034,0,-0.0971166652624333
301,33,0.9,4,94.7674418604651,-915.552490511734,165.481481481513,-1265.04705761836,891.12970824186,830.350694708889,4447.11434744902,-638,-8112,1130,-22,14,-195,62.4069736409476,69.628414410747,59.88,66.3972357197047,0.0369744204907505,0.0488700090185148,0,-0.06199603799854
301,33,0.9,4,95.3488372093023,-737.200983201404,450.518518518487,-1410.74575103138,1012.06367109422,1292.0610811311,4944.72795561741,-864.374933625917,-8097.51020408164,1117,-64.7218238046879,17.9356056207169,-84.3244167224872,62.4409728383179,69.6779157337676,59.88,66.360255907333,0.0339991973702709,0.0495013230205501,0,-0.0369798123716265
301,33,0.9,4,95.9302325581395,-504,604,-1472,1115,1674,5327,-1042,-8072,1104,-104,23,-1,62.5090380245005,69.68,59.88,66.2817063798612,0.0680651861825723,0.00208426623244407,0,-0.0785495274718215
301,33,0.9,4,96.5116279069768,-96,410,-1440,1191,1936,5555,-1056,-8048,1140,-147,47,56,62.5854278643855,69.6791015625,59.879326171875,66.1937805903076,0.07638983988506,-0.000898437499998295,-0.000673828124995168,-0.0879257895536654
301,33,0.9,4,97.0930232558139,920,-38,-1178,1287,2145,5901,-1011.62499999999,-8062.9104477612,1117.78609154929,-205.6870816169,60.5325642191427,126.949103079662,62.6301830682234,69.6185546875,59.833916015625,66.142745721487,0.0447552038378234,-0.0605468750000142,-0.0454101562500071,-0.0510348688205511
301,33,0.9,4,97.6744186046512,2180.60385650816,-648.247892271944,-787.186447539882,1367.12336719885,1984.96358572309,6244.44703935275,-913.999999999981,-8096.76119402986,1063.59624413145,-274.638516992807,70.7377813139373,207.18387194868,62.6693599352692,69.6185546875,59.82,66.0971643639639,0.0391768670458319,0,-0.013916015625,-0.0455813575231332
301,33,0.9,4,98.2558139534884,3314,-1348,-466,1409,1824,6435,-816.375000000007,-8133.23134328358,996.108274647895,-332.020693872294,79.5741077517611,287.576704843337,62.7062081725629,69.6791015625,59.82,66.0541359000613,0.0368482372937251,0.0605468750000142,0,-0.0430284639025302
301,33,0.9,4,98.8372093023256,4157.55794901356,-2197.16239756045,-341.940223712914,1313.94399999997,1822.62169595244,6399.96164973143,-772,-8156,934,-356,89,359,62.7446649828561,69.68,59.7979503464203,66.0057245958429,0.0384568102931908,0.000898437499998295,-0.0220496535796784,-0.0484113042183907
301,33,0.9,4,99.4186046511628,4961.89269264007,-3209.46769725528,-264.837033757703,1087.27200000002,1821.93029932832,6304.36494919434,-798.874999999991,-8163.9746623144,869.704225352127,-354.75,98.5211480537516,429.472745706092,62.7839707576407,69.6801227728754,59.7564372995617,65.98,0.0393057747846015,0.000122772875442934,-0.0415130468585829,-0.0257245958429451
301,33,0.9,4,100,5641.84846176012,-4182.79179817029,-204.563731946002,816.727999999981,1821.52805472799,6162.48742379148,-858,-8168.9548208981,797.403755868546,-352,107.432900834105,501.447996183205,62.824154065033,69.6931128105328,59.718861791523,65.98,0.0401833073923328,0.0129900376573886,-0.0375755080387279,0
301,33,0.9,1,0,6112.26948725331,-4915.01059939,-130.993620089556,590.056000000025,1821.01720675177,5988.6065989258,-917.124999999991,-8173.95756903274,738.401408450713,-349.25,117.378203197403,557.449248568694,62.8649292586143,69.7214397973809,59.6792556908889,65.9756660266578,0.0407751935812826,0.0283269868480147,-0.0396061006341597,-0.00433397334224139
301,33,0.9,1,0.588235294117647,6288,-5204,-14,495,1820,5797,-944,-8182,714,-348,130,580,62.9059062251864,69.756462209139,59.631651841761,65.9497595792637,0.0409769665721029,0.0350224117581064,-0.0476038491278175,-0.0259064473940498
301,33,0.9,1,1.17647058823529,6212.64120370373,-5072.32870370376,346.392086383201,519.673611111101,1767.60467923147,5476.63693789775,-932.020119550959,-8252.31439338197,724.151625601396,-350.127017814947,146.074326230759,574.082227729992,62.9470091081841,69.8159919725526,59.5923031605022,65.9203469961321,0.0411028829976701,0.0595297634136784,-0.0393486812588151,-0.0294125831316023
301,33,0.9,1,1.76470588235294,6004.29629629631,-4708.29629629632,1078.81612074372,587.888888888884,1625.23661397302,4938.21716089608,-897.823006269136,-8433.39079284481,753.129902318121,-356.340109775521,165.243630987829,557.189677795597,62.9883010537193,69.85,59.58,65.91,0.0412919455352352,0.0340080274473564,-0.0123031605022206,-0.0103469961321139
301,33,0.9,1,2.35294117647059,5689.56249999997,-4158.37499999994,2106.38658670379,690.93750000001,1410.91373597719,4228.61385048862,-844.022452252506,-8712.13293779606,798.719930018961,-366.387333655317,187.450480291448,530.613500510274,63.0302008799261,69.85,59.58,65.91,0.0418998262067447,0,0,0
301,33,0.9,1,2.94117647058824,5295.03703703709,-3469.03703703713,3352.21796788521,820.111111111095,1142.6539769966,3394.70018816926,-773.23224959907,-9075.44456764312,858.706808572676,-380.016747227925,212.637440161854,495.644846187492,63.0679271201278,69.8312232851618,59.58,65.8933095868105,0.037726240201728,-0.0187767148381823,0,-0.0166904131894938
301,33,0.9,1,3.52941176470588,4847.31712962962,-2686.75462962961,4739.42474791117,966.701388888893,838.475268783597,2483.34935543095,-688.066190406753,-9510.22942179381,930.875637848093,-396.976408266951,240.747076619308,453.574865140685,63.1024030570882,69.7634439242825,59.58,65.8330612660289,0.0344759369603764,-0.0677793608792996,0,-0.0602483207816107
301,33,0.9,1,4.11764705882353,4373.00000000008,-1858.00000000015,6191.12141040302,1121.99999999997,516.395543090911,1541.43453376789,-591.138066773588,-10003.3912396554,1013.01151771395,-417.014374545978,271.721955684036,405.694707683339,63.1440724061706,69.805,59.58,65.87,0.0416693490824471,0.0415560757174802,0,0.0369387339711125
301,33,0.9,1,4.70588235294118,3898.68287037038,-1029.24537037039,7630.42243898409,1277.29861111111,194.432731670839,615.828904672949,-485.06167079748,-10541.8337606357,1102.89954803908,-439.878703838615,305.504643376305,353.295524128876,63.18970703125,69.8472215221774,59.58,65.9065625,0.0456346250793729,0.0422215221774138,0,0.0365624999999881
