locomotion_mode,terrain_info,walk_speed_info,gait_phase,gait_percentage,left_accel_x,left_accel_y,left_accel_z,left_gyro_x,left_gyro_y,left_gyro_z,right_accel_x,right_accel_y,right_accel_z,right_gyro_x,right_gyro_y,right_gyro_z,left_hip_angle,left_knee_angle,right_hip_angle,right_knee_angle,left_hip_angle_vel,left_knee_angle_vel,right_hip_angle_vel,right_knee_angle_vel
302,-33,0.9,2,0,1940,-7898,914,-105,-77,-502,-1328,-5476,474,1437,-60,-560,61.50684435,68.67067926,59.60725447,66.89697305,0.011617963,0.013277672,0.024384771,0.09994255
302,-33,0.9,2,0,1943,-7885.134529,847.3240223,-118.6222881,-67,-560.754087,-1368,-5316,218,1596,63,-839,61.51941721,68.68504824,59.63107973,66.98770701,0.012572864,0.014368987,0.023825255,0.090733961
302,-33,0.9,2,0,1946,-7860,790,-132,-57,-635,-1150,-5088,38,1812,279,-1212,61.5314759,68.6988296,59.65361588,67.06653166,0.012058686,0.013781356,0.022536152,0.078824651
302,-33,0.9,2,0,1894,-7828,888,-147,-66,-680,-1004,-5060,-28,1955,395,-1417,61.54155133,68.71034438,59.67863443,67.14398272,0.01007543,0.011514777,0.025018556,0.077451052
302,-33,0.9,2,0,1730,-7834,1042,-179,-79,-780,-876,-5402,-68,2162,539,-1705,61.54817443,68.71791363,59.70577532,67.219635,0.006623096,0.007569252,0.027140884,0.075652281
302,-33,0.9,2,0,1546,-7650,1000,-234,-122,-873,-850,-5610,-52,2302,608,-1882,61.54965967,68.72,59.73413339,67.29155972,0.001485241,0.002086371,0.028358074,0.071924719
302,-33,0.9,2,0,1156,-7966,1244,-287,-152,-1033,-820,-5802,-24,2516,668,-2091,61.53946153,68.72,59.76280352,67.35782808,-0.010198132,0,0.028670125,0.066268366
302,-33,0.9,2,0,1256.811977,-7904.8125,994.2827988,-314.5777987,-136.5,-1216.564219,-910,-5836,-56,2655,692,-2201,61.52033855,68.72,59.79088056,67.41651131,-0.019122984,0,0.028077038,0.058683223
302,-33,0.9,2,0,1494,-7790,686,-333,-121,-1370,-1092,-5864,-70,2847,782,-2387,61.49943059,68.72,59.81745937,67.4656806,-0.020907955,0,0.026578812,0.049169289
302,-33,0.9,2,0,2030,-7660,606,-345,-136,-1449,-1210,-5844,38,2958,893,-2525,61.48387755,68.72,59.84418912,67.50947494,-0.015553043,0,0.026729753,0.043794346
302,-33,0.9,2,0,2176.078746,-7696,840,-371.6348588,-151.8476716,-1499.886956,-1313.192042,-5915.401796,103.3571429,3091.882717,1063.562369,-2656.221561,61.48,68.72020755,59.87264527,67.5528776,-0.003877551,0.000207551,0.028456152,0.043402658
302,-33,0.9,2,0,2260,-7732,1074,-409,-171,-1546,-1368,-6050,134,3205,1243,-2766,61.48,68.7236349,59.8998959,67.59083653,0,0.003427348,0.027250627,0.037958934
302,-33,0.9,2,0,2340.928977,-7638,909,-455.7394842,-202.4089466,-1596.445658,-1357.633929,-6202.628284,90.83120511,3278.267389,1407.384191,-2854.951155,61.48,68.73055637,59.92297411,67.61821946,0,0.006921472,0.023078206,0.027382924
302,-33,0.9,2,0,2382,-7544,744,-503,-235,-1659,-1331.357143,-6389.449275,-22.95011971,3342.34879,1573.647059,-2937.873249,61.48,68.7400402,59.938913,67.62989409,0,0.00948383,0.015938891,0.011674629
302,-33,0.9,2,0,2055,-7571,797,-546.2795031,-261.747619,-1773.691366,-1296.401786,-6583.045629,-183.7563847,3387.755796,1702.336397,-2999.108718,61.48,68.75115462,59.94909937,67.63,0,0.011114422,0.010186373,0.000105914
302,-33,0.9,3,0,1728,-7598,850,-570,-276,-1895,-1260,-6756,-368,3405,1754,-3023,61.48,68.76296787,59.95862877,67.63,0,0.011813247,0.009529398,0
302,-33,0.9,3,0,2328.962963,-7506.222222,519.7037037,-567.7746701,-270.5555556,-1989.546879,-1223.906232,-6887.550755,-652.7812519,3377.83153,1670.180244,-3004.402911,61.48,68.77454818,59.96744204,67.63,0,0.011580305,0.008813272,0
302,-33,0.9,3,0,3445.037037,-7335.777778,-93.7037037,-561.327118,-260.4444444,-2071.217884,-1170,-7034,-994,3310,1501,-2958,61.48,68.78496377,59.97543105,67.63,0,0.010415597,0.00798901,0
302,-33,0.9,3,0,4046,-7244,-424,-551,-255,-2106,-1042,-7280,-1286,3121,1264,-2829,61.48,68.79328289,59.98248767,67.63,0,0.008319122,0.007056612,0
302,-33,0.9,3,0,3797.715093,-7347,-238.1121441,-485.9618294,-269.5,-2014.5,-1120.125,-7560.546579,-1371.67459,2898.275417,992.2497107,-2675.8125,61.48,68.79857378,59.98850374,67.63,0,0.005290881,0.006016078,0
302,-33,0.9,3,0,3400,-7450,34,-427,-284,-1923,-1292,-7865.208071,-1432.932969,2653.547851,698.3152946,-2506.5,61.48018894,68.8,59.99337115,67.63,0.000188942,0.001426224,0.004867408,0
302,-33,0.9,3,0,3118,-7160,178,-438,-250,-1989,-1463.875,-8109.765526,-1469.724863,2400.546359,428.9732312,-2369.4375,61.48610068,68.8,59.99698175,67.63,0.005911734,0,0.003610603,0
302,-33,0.9,3,0,3243,-7275,181.9426126,-429,-246.2121212,-2047.168033,-1542,-8210,-1482,2153,231,-2313,61.49814815,68.8,59.99922742,67.63,0.012047472,0,0.002245661,0
302,-33,0.9,3,0,3368,-7390,186,-420,-245,-2103,-1519.700447,-8167.988807,-1461.259259,1909.56477,110.0620307,-2326.481481,61.51340958,68.8,60,67.63,0.01526143,0,0.000772584,0
302,-33,0.9,3,0,3016,-7174,802,-424,-333,-2160,-1456.956449,-8075.755393,-1422.740741,1667.180056,16.69960932,-2351.518519,61.52896319,68.8,60,67.62025315,0.015553608,0,0,-0.009746853
302,-33,0.9,3,0,3354.867624,-7043.285714,501,-465.1651054,-338.1934655,-2270.211039,-1360,-7984,-1402,1437,-85,-2365,61.54188719,68.8,60,67.59572332,0.012924006,0,0,-0.024529829
302,-33,0.9,3,0,3854,-6982,200,-503,-342,-2346,-995.1434599,-7907.042895,-1455.975638,1225.688094,-198.6327451,-2296.26959,61.54925982,68.8,60,67.56347661,0.007372624,0,0,-0.032246712
302,-33,0.9,3,0,4192.976075,-7006.813315,239.0480076,-485.6236257,-353.3411369,-2304.509363,-498,-7836,-1558,1024,-348,-2144,61.55,68.8,60,67.52124314,0.000740184,0,0,-0.042233471
302,-33,0.9,3,0,4486.71026,-7077.848852,331.4293486,-449.8028069,-370.6315003,-2224.35206,-156,-7780,-1676,827,-640,-1861,61.55,68.8,60,67.47,0,0,0,-0.051243136
302,-33,0.9,3,0,4612,-7190,440,-420,-389,-2172,-279.9643963,-7814.921079,-1668.258278,675.0848621,-950.5602634,-1628.380945,61.55,68.85047832,60,67.44713042,0,0.050478323,0,-0.022869581
302,-33,0.9,3,0,4448.810261,-7771.620057,608.0709914,-400.8400878,-404.786677,-2157.926966,-448,-7894,-1648,549,-1255,-1433,61.55,68.87261719,60,67.43173559,0,0.022138865,0,-0.015394825
302,-33,0.9,3,0,4210,-8372,724,-391,-427,-2152,-522.3971505,-8117.844007,-1494.667276,447.8413253,-1540.089193,-1280.38623,61.55,68.80738281,60,67.40989209,0,-0.065234375,0,-0.0218435
302,-33,0.9,3,0,4052.739414,-8522.421169,698.8871366,-425.0625,-514.4209042,-2167.094202,-578.4771355,-8441.033115,-1190.023293,359.47432,-1811.322497,-1148.474055,61.55354951,68.8,60,67.34639006,0.003549505,-0.007382812,0,-0.063502031
302,-33,0.9,3,0,3903.379479,-8634.263261,615.1990309,-500,-667.5685815,-2205.33454,-630,-8606,-892,263,-2052,-1007,61.56873675,68.8,60,67.24643114,0.015187244,0,0,-0.099958926
302,-33,0.9,3,0,3791.829805,-8703.973723,460.4114098,-574.9375,-813.1819681,-2256.157607,-681.9170488,-8603,-610.7782132,141.0957633,-2297.958241,-838.3960657,61.59171863,68.8,60,67.19829052,0.022981881,0,0,-0.048140614
302,-33,0.9,3,0,3748,-8728,222,-609,-878,-2309,-728,-8600,-424,21,-2434,-664,61.62170855,68.80516622,60,67.15696162,0.029989923,0.005166225,0,-0.041328902
302,-33,0.9,3,0,4002,-6908,-1602,-585,-695,-2371,-775.5406977,-8633.681818,-396.6257964,-72.40973108,-2430.081738,-509.3614529,61.67475125,68.86301197,60,67.11585574,0.0530427,0.05784575,0,-0.041105883
302,-33,0.9,3,0,4738.711269,-6274.263498,-1567.780488,-408.6975856,-485.2416773,-2402.838843,-802,-8714,-364,-161,-2417,-335,61.68,68.92126901,60,67.07267812,0.005248747,0.058257033,0,-0.043177617
302,-33,0.9,3,0,5498,-5864,-1464,-240,-363,-2417,-252,-8904,262,-258,-2173,-73,61.68,68.96,60,67.02,0,0.038730992,0,-0.052678121
302,-33,0.9,3,0,5794,-5504,-720,-226,-386,-2306,-486,-9016.522515,321.3654393,-341.9326052,-1890.099634,144.7065699,61.68,68.96,60,66.94038842,0,0,0,-0.079611583
302,-33,0.9,3,0,5675.094225,-6067,-239.2982743,-252.5,-440.5219277,-2187.44802,-720,-9148,368,-412,-1616,333,61.68,68.97009602,60,66.84032027,0,0.010096022,0,-0.100068148
302,-33,0.9,3,0,5474,-6630,20,-279,-482,-2120,-620,-9492,516,-462,-1399,488,61.68,69.02990398,60,66.74823157,0,0.059807956,0,-0.092088701
302,-33,0.9,3,0,5263.905775,-6607.020649,76.6405868,-210,-484.0469565,-2143,-695,-9484.911471,576.7434944,-511.4975496,-1201.151704,673.7497682,61.69898438,69.0034375,59.98101563,66.68677049,0.018984375,-0.026466478,-0.018984375,-0.061461078
302,-33,0.9,3,0,5136,-6548,98,-141,-486,-2166,-770,-9462,602,-555,-993,877,61.74,68.88,59.94,66.64,0.041015625,-0.1234375,-0.041015625,-0.04677049
302,-33,0.9,3,0,5514.348946,-6302.722563,-17.26292726,-142.8513514,-507.9130435,-2140.655316,-736,-9180,570,-586,-733,1092,61.74,68.7565625,59.94,66.59924938,0,-0.1234375,0,-0.040750622
302,-33,0.9,3,0,5926,-5952,-192,-149,-528,-2081,-687.7430777,-8966.152354,547.2535211,-629.0326508,-482.7073067,1252.203179,61.74104937,68.72139916,59.94,66.53975467,0.00104937,-0.03516334,0,-0.059494709
302,-33,0.9,3,0,5966,-5680,-296,-255,-518,-1946,-606,-8858,536,-681,-221,1345,61.75108171,68.73477561,59.94,66.44225203,0.010032341,0.013376454,0,-0.097502634
302,-33,0.9,3,0,5824,-5752,-394,-298,-542,-1891,-290.7920168,-9060,711,-749.8020983,101.1037799,1365.569816,61.76735599,68.75647466,59.94,66.38160357,0.016274284,0.021699045,0,-0.060648467
302,-33,0.9,3,0,5632.125465,-6114.557459,-343.6315789,-352.1674627,-498,-1865.174,114,-9262,886,-809,402,1378,61.78444444,68.77925926,59.94,66.33770064,0.01708845,0.0227846,0,-0.043902929
302,-33,0.9,3,0,5514,-6684,-218,-400,-454,-1854,364,-9218,836,-835,603,1389,61.79691928,68.79589238,59.94,66.29884917,0.01247484,0.01663312,0,-0.038851468
302,-33,0.9,3,0,5522.615385,-7428.278293,339.6315789,-427.8326023,-456.8868778,-1873.020147,652,-8740,632,-814,822,1397,61.8,68.8,59.93674805,66.2548436,0.003080716,0.004107621,-0.003251953,-0.04400557
302,-33,0.9,3,0,5546,-7908,822,-450,-465,-1916,1723.073298,-8539.00536,763.7167413,-754.7065977,312.357177,1628.700008,61.8,68.8,59.89543945,66.20445309,0,0,-0.041308594,-0.050390511
302,-33,0.9,3,0,5722.818878,-6699,508.1268844,-475.5555556,-551.3454168,-2026.533351,3533.842932,-8384.393653,1190.244643,-637.8176698,-943.3808615,2144.447363,61.82847168,68.8,59.82011719,66.2,0.02847168,0,-0.075322266,-0.004453091
302,-33,0.9,3,0,5930,-5490,144,-490,-675,-2127,5239.691099,-8285.08512,1958.650224,-458.7699071,-2535.428469,2714.721036,61.87,68.80046611,59.76,66.19928669,0.04152832,0.000466107,-0.060117187,-0.000713306
302,-33,0.9,3,0,5987.127399,-5496,81.39158995,-436.5,-754.7032578,-2149.946502,5996,-8250,3116,-213,-4054,3110,61.87,68.84079754,59.76,66.14688615,0,0.040331436,0,-0.052400549
302,-33,0.9,3,0,6048,-5502,26,-383,-818,-2159,-4608,-21748,10002,453,-5499,3287,61.87553711,68.89366655,59.76,66.12,0.005537109,0.052869009,0,-0.026886145
302,-33,0.9,3,0,6254,-5472,-110,-457,-861,-2133,-3011.390575,-14950,7530,-69.5,-4529.627485,2751.851207,61.92446289,68.94156728,59.76,66.12,0.048925781,0.047900729,0,0
302,-33,0.9,3,0,6382,-5638,-346,-496,-894,-2133,-16,-8152,5058,-592,-2423,1937,61.93,69.01971079,59.76,66.12,0.005537109,0.078143506,0,0
302,-33,0.9,3,0,6461.836642,-6326.820964,-314.3703704,-555.2461301,-836.962963,-2112.552972,3374,-22496,8332,163,1264,1445,61.93069815,69.13194076,59.76039703,66.12079788,0.000698148,0.112229972,0.00039703,0.000797883
302,-33,0.9,3,0,6529.457431,-7348.854926,-255.6296296,-628.3844494,-731.037037,-2064.77261,7076,-6004,5204,341,1448,724,61.97999593,69.27087788,59.79371591,66.1771382,0.049297781,0.138937117,0.033318879,0.056340322
302,-33,0.9,3,0,6656,-7874,-224,-701,-674,-2010,6867.089988,-7302.088372,170.4921741,-33.60201511,1066.740272,1449.012128,62,69.42503911,59.83755932,66.1875,0.020004071,0.154161229,0.043843415,0.010361795
302,-33,0.9,3,0,7238,-7640,-324,-768,-716,-1947,6282,-9666,-3106,-675,428,2528,62,69.58225733,59.87821757,66.1234375,0,0.15721822,0.04065825,-0.0640625
302,-33,0.9,3,0,7660,-8478,-88,-837,-810,-1720,3632,-12120,-2572,-1231,-91,3132,62.02502058,69.64116784,59.88,66.12,0.025020576,0.058910515,0.001782427,-0.0034375
302,-33,0.9,3,0,7526.41072,-8250.112208,-91.99938305,-829.8429148,-925.6310499,-1540.116296,3190,-7002,-5982,-654,-24,3372,62.06,69.68,59.88,66.12,0.034979424,0.03883216,0,0
302,-33,0.9,3,0,7208.26192,-7713.132554,-104.8316881,-810.2477728,-1055.422044,-1379.153515,295.0205352,-7043.292428,-4057.141048,-217.8092316,2.405715308,3235.937215,62.06,69.74131279,59.83898438,66.1746875,0,0.061312789,-0.041015625,0.0546875
302,-33,0.9,3,0,6829.48216,-7087.086623,-127.7481492,-781.0287444,-1161.252017,-1236.863977,-4356.378621,-7153.029301,-319.3932073,142.8176064,19.31214335,2922.763319,62.06,69.76,59.82,66.1875,0,0.018687211,-0.018984375,0.0128125
302,-33,0.9,4,0,6514,-6592,-162,-745,-1205,-1113,-6790,-7310,2176,293,44,2575,62.06,69.76,59.82,66.1234375,0,0,0,-0.0640625
302,-33,0.9,4,0,6311.599587,-6249.280712,-693.7042226,-676.8980778,-1153.057739,-1010.706805,-4819,-7791.379352,2924.950346,53.4742351,115.0847024,2188.244211,62.09191533,69.8597724,59.79264401,66.12,0.031915327,0.099772403,-0.027355994,-0.0034375
302,-33,0.9,4,0,6082,-5996,-1610,-578,-1055,-921,-2848,-8186,3246,-228,169,1809,62.13,70.01685331,59.76,66.12079788,0.038084673,0.157080905,-0.032644006,0.000797883
302,-33,0.9,4,0,5658,-5862,-2504,-459,-942,-836,-3017,-8058,1649,-298.9742351,107.5,1532.725565,62.13,70.06508651,59.76,66.1771382,0,0.048233197,0,0.056340322
302,-33,0.9,4,0,5960.512249,-5600.395795,-2734.793633,-285.4113712,-765.3721387,-703.8712022,-3186,-7930,52,-328,46,1309,62.13,70.10851888,59.76,66.19205939,0,0.043432378,0,0.014921186
302,-33,0.9,4,0,6344,-5420,-2820,-171,-644,-522,-2896,-7936,64,-268,49,1140,62.13,70.15502114,59.76,66.13581708,0,0.046502259,0,-0.05624231
302,-33,0.9,4,0,6490.487751,-5620,-2037.419302,-162.8511706,-634.1103175,-249.7483885,-2184,-8076,1048,-235,53,991,62.1544043,70.2088468,59.76,66.081489,0.024404297,0.053825656,0,-0.054328081
302,-33,0.9,4,0,6556,-5820,-796,-160,-627,79,-2233.259259,-8064.592593,974.0735198,-253.6666667,52.74074074,899.0019733,62.19,70.26555147,59.75932617,66.05052781,0.035595703,0.056704672,-0.000673828,-0.030961193
302,-33,0.9,4,0,5722,-5620,58,-345,-614,415,-2324.740741,-8043.407407,782.8137063,-288.3333333,52.25925926,826.8858162,62.19,70.32713235,59.71391602,66.09334549,0,0.061580882,-0.045410156,0.042817683
302,-33,0.9,4,0,5780.631652,-5289.610237,386.1421161,-497.8616939,-661.7723002,634.3920441,-2374,-8032,520,-307,52,754,62.20320302,70.34,59.7,66.14658734,0.013203018,0.012867647,-0.013916016,0.05324185
302,-33,0.9,4,0,5909.929971,-4786.722137,604.6266136,-628.5975136,-758.6557115,813.9585849,-1996,-8070,18,-221,52,673,62.25481481,70.34,59.7,66.19591106,0.051611797,0,0,0.049323721
302,-33,0.9,4,0,6040,-4034,684,-684,-835,1036,-2113,-8041,471,-144.1338028,19.5,637.4451075,62.26,70.37253906,59.7,66.2,0.005185185,0.032539063,0,0.004088939
302,-33,0.9,4,0,6148,-2204,340,-578,-868,1383,-2230,-8012,924,-103,-13,604,62.26044521,70.42,59.7,66.2003801,0.000445209,0.047460937,0,0.000380103
302,-33,0.9,4,0,6261.660205,-415.2223001,-791.6526611,-523.2156294,-312,1597.214217,-2177.485793,-8022.551724,894,-113.5033632,31,521.3909953,62.29590203,70.42,59.7,66.23556465,0.03545682,0,0,0.035184552
302,-33,0.9,4,0,6326,572,-1680,-460,244,1774,-2042,-8046,864,-130,75,462,62.3314825,70.42,59.709375,66.3018886,0.035580472,0,0.009375,0.066323945
302,-33,0.9,4,0,5283.777778,-466.6756687,-1622.093577,-245.1179781,197.8359912,1917.248287,-1614,-8090,880,-141,71,471,62.36072971,70.42,59.75742188,66.40567604,0.02924721,0,0.048046875,0.103787438
302,-33,0.9,4,0,3348.222222,-2517.351337,-1443.298266,117.8887694,76.33864903,2052.3314,-1859.022042,-8066.364865,1049.867917,-157.4411776,48.94303797,463.1943758,62.38321337,70.42,59.76,66.46693182,0.022483658,0,0.002578125,0.06125578
302,-33,0.9,4,0,2306,-3982,-1136,492,-95,2287,-2166,-8024,1296,-186,30,442,62.38759945,70.41698635,59.76205761,66.49,0.004386084,-0.003013654,0.002057613,0.023068182
302,-33,0.9,4,0,2688,-4434,418,839,-451,3139,-2252,-7982,1458,-275,86,359,62.33814815,70.33487123,59.80444444,66.49,-0.049451303,-0.082115113,0.042386831,0
302,-33,0.9,4,0,2202,-4166,1182,915,-560,3606,-2069.273306,-7981.119163,1235.877413,-309.5446114,86.61187634,361.0602205,62.3309375,70.19985865,59.82,66.49,-0.007210648,-0.135012586,0.015555556,0
302,-33,0.9,4,0,1960.303521,-4156.768006,811.344,1018.529488,-493.3405809,3920.14021,-1700.324389,-7980.837359,811.9770484,-332.605639,86.91704928,367.7871077,62.38699219,69.98144459,59.82,66.49,0.056054688,-0.218414056,0,0
302,-33,0.9,4,0,1794.873412,-4152.834968,-72.528,1142.687722,-315.4217427,4180.444928,-1414,-7980,550,-341,87,380,62.39,69.60950693,59.79,66.49,0.003007812,-0.371937663,-0.03,0
302,-33,0.9,4,0,1658.891543,-4150.917926,-1127.472,1283.681213,-59.33261411,4407.979541,-1296,-7966,512,-310,76,475,62.39,69.34389268,59.76,66.48732139,0,-0.265614244,-0.03,-0.002678608
302,-33,0.9,4,0,1505.539782,-4147.733923,-2011.344,1437.716469,241.8376763,4623.809436,-1438,-7994,640,-303,70,532,62.39,69.28799305,59.76,66.43460411,0,-0.055899637,0,-0.052717281
302,-33,0.9,4,0,1288,-4140,-2382,1601,555,4849,-1464,-7888,762,-316,81,614,62.40251781,69.33007124,59.74748219,66.43004478,0.01251781,0.042078193,-0.01251781,-0.004559332
302,-33,0.9,4,0,916,-4100,-2256,1794,962,5079,-1556,-7940,730,-320,70,669,62.44770405,69.5108162,59.70229595,66.48048239,0.045186241,0.180744962,-0.045186241,0.050437614
302,-33,0.9,4,0,704,-4390,-1604,2013,1528,5274,-1617.664742,-7927.641688,767.8518519,-331.8663759,76.52133146,729.8385344,62.45,69.50817486,59.7,66.53632282,0.00229595,-0.00264134,-0.00229595,0.055840423
302,-33,0.9,4,0,850,-4776,-1072,2069,1870,5356,-1668.847946,-7900.172265,838.1481481,-350.3108724,88.82044069,793.6759234,62.45,69.47456048,59.70067383,66.57,0,-0.033614381,0.000673828,0.033677183
302,-33,0.9,4,0,1502.092477,-5268.924322,-374.8724914,2027.492266,2233.356878,5481.851114,-1732,-7872,876,-367,96,856,62.45,69.44495311,59.74608398,66.57,0,-0.029607368,0.045410156,0
302,-33,0.9,4,0,2232,-5694,50,1948,2537,5632,-1847.286217,-7843.031977,790.6875,-377.8875489,96.67458824,916.9160494,62.46215994,69.44,59.76,66.57,0.012159941,-0.004953112,0.013916016,0
302,-33,0.9,4,0,2574.320383,-5953.686543,-25.00588439,1838.919826,2756.329697,5805.567055,-2001.30997,-7810.139535,603,-386.666517,96.97822687,977.6294334,62.51587944,69.44,59.76,66.57,0.053719499,0,0,0
302,-33,0.9,4,0,2830.575138,-6155.820348,-196.9006577,1708.930138,2934.498182,5988.708266,-2136.178739,-7783.177326,415.3125,-396.6122265,97.29275206,1035.278101,62.55853613,69.4,59.76,66.53991973,0.042656691,-0.04,0,-0.030080272
302,-33,0.9,4,0,2986,-6274,-386,1626,3008,6121,-2194,-7772,330,-411,98,1087,62.58,69.36,59.76,66.48533897,0.021463868,-0.04,0,-0.054580755
302,-33,0.9,4,0,3056,-6320,-582,1601,2994,6186,-2167.178682,-7785.481481,430.67391,-440.5238075,118.9733046,1126.373136,62.58,69.36,59.76,66.43149937,0,0,0,-0.053839603
302,-33,0.9,4,0,3482,-6494,-586,1550,2877,6273,-2093.690697,-7810.518519,647.34782,-484.6916732,159.0371283,1161.432163,62.59460411,69.36,59.74748219,66.42,0.014604112,0,-0.01251781,-0.01149937
302,-33,0.9,4,0,3936.71705,-6567.630317,-389.1068301,1460.154286,2712.498542,6360.345193,-1984,-7824,852,-530,187,1211,62.64732139,69.36,59.70229595,66.42,0.052717281,0,-0.045186241,0
302,-33,0.9,4,0,4356,-6646,-50,1349,2507,6419,-1565.923983,-7729,1033.991851,-574.9840026,194.9331575,1324.381872,62.65,69.36,59.7,66.385,0.002678608,0,-0.00229595,-0.035
302,-33,0.9,1,0,4751.987887,-6880.24665,267.844382,1237.520531,2242.060395,6438.196532,-1210,-7634,1138,-616,202,1445,62.65,69.35387747,59.7,66.35267861,0,-0.006122532,0,-0.032321392
302,-33,0.9,1,0.512820513,4968,-7218,556,1116,1953,6446,-1531.408865,-7672.888889,1032.676901,-651.6035621,218.0144928,1523.030694,62.65,69.23338083,59.7,66.40539589,0,-0.120496642,0,0.052717281
302,-33,0.9,1,1.025641026,4961,-7599.349854,773.2825374,977.3134387,1688.227526,6340.005263,-2163.039953,-7745.111111,787.7982464,-682.6906699,237.5072464,1586.682014,62.65371483,69.2,59.7,66.42,0.003714834,-0.033380826,0,0.014604112
302,-33,0.9,1,1.538461538,4954,-7982,914,832,1426,6152,-2606,-7784,510,-696,247,1613,62.67592036,69.2,59.7,66.42,0.022205526,0,0,0
302,-33,0.9,1,2.051282051,4969,-8289.773222,972.5293613,685.0440085,1145.073385,5967.137594,-2770.581693,-7715.466019,119.3218197,-685.320122,238.5,1608,62.70113115,69.2,59.7,66.42,0.025210786,0,0,0
302,-33,0.9,1,2.564102564,4984,-8562,1004,551,893,5781,-2844,-7628,-142,-665,230,1603,62.71,69.19794565,59.7,66.42,0.008868854,-0.002054352,0,0
302,-33,0.9,1,3.076923077,4904,-8800,1016,450,717,5627,-2650.195579,-7599.920443,-22.60126582,-637.557621,236.4253555,1630.952703,62.71,69.14877338,59.7,66.42,0,-0.049172266,0,0
302,-33,0.9,1,3.58974359,4596,-8746,836,333,438,5363,-2394,-7578,138,-614,252,1687,62.71,69.08998347,59.7,66.42,0,-0.058789911,0,0
302,-33,0.9,1,4.102564103,4460,-8734,722,276,264,5165,-2302,-7552,200,-606,291,1764,62.71,69.04061426,59.7,66.42,0,-0.049369211,0,0
302,-33,0.9,1,4.615384615,4237.892235,-8648.847181,639.2402145,247.3238332,81.90167968,4879.836194,-2134.865169,-7588,614.7520473,-667.6023018,266.5,1918.430503,62.71,69.04,59.66735599,66.45104765,0,-0.00061426,-0.032644006,0.031047647
302,-33,0.9,1,5.128205128,3944.137942,-8510.534702,571.8423295,226.754221,-103.2314872,4535.504781,-2022,-7624,980,-740,242,2071,62.71,69.04612253,59.64,66.49601758,0,0.006122532,-0.027355994,0.044969929
302,-33,0.9,1,5.641025641,3618,-8438,544,217,-281,4189,-3358,-7302,-184,-754,316,2144,62.71,69.16661917,59.64,66.52033278,0,0.120496642,0,0.024315206
302,-33,0.9,1,6.153846154,3200.200743,-8651,701,214.1391051,-448.3949214,3849.524779,-3386.542114,-7304.551813,-93,-735,350.2473118,2116.481343,62.69608398,69.18144531,59.64,66.54115529,-0.013916016,0.014826139,0,0.020822509
302,-33,0.9,1,6.666666667,2842,-8864,858,213,-605,3526,-3410,-7312,-2,-716,365,2085,62.65067383,69.12089844,59.64,66.56684205,-0.045410156,-0.060546875,0,0.025686757
302,-33,0.9,1,7.179487179,2672.885781,-8805.156541,801.633276,217.0822785,-753.26,3233.104965,-3542,-7354,-100,-721,358,2080,62.65,69.12,59.64,66.61708706,-0.000673828,-0.000898437,0,0.050245014
302,-33,0.9,1,7.692307692,2554,-8670,684,228,-881,2989,-3550,-7308,-360,-688,369,2066,62.65,69.12,59.64,66.64,0,0,0,0.022912938
302,-33,0.9,1,8.205128205,2462,-8388,502,268,-973,2824,-2960,-7310,-274,-670,397,2116,62.65,69.12,59.64,66.64,0,0,0,0
302,-33,0.9,1,8.717948718,2175.675882,-8250.296673,342.6507899,330.0232816,-1106.943574,2650.282455,-3067.101057,-7317.581731,-136.5787573,-674.5382725,411.9519231,2199.185019,62.65,69.10144531,59.65391602,66.65519796,0,-0.018554688,0.013916016,0.015197958
302,-33,0.9,1,9.230769231,1720,-8190,200,402,-1282,2464,-3330.769484,-7330.461538,50.08190612,-686.6853933,421.5384615,2306.267262,62.65,69.04089844,59.69932617,66.71635515,0,-0.060546875,0.045410156,0.061157189
302,-33,0.9,1,9.743589744,1102,-8354,78,472,-1527,2252,-3664.55317,-7342.610577,285.7016164,-704.2398174,432.8557692,2402.965874,62.65,69.08352534,59.7,66.74221511,0,0.042626903,0.000673828,0.025859963
302,-33,0.9,1,10.25641026,575.267493,-8514.467217,87,465.0958029,-1713.533061,2033.468259,-3982,-7348,570,-725,453,2455,62.64699219,69.1165625,59.7,66.75943686,-0.003007812,0.033037159,0,0.017221746
302,-33,0.9,1,10.76923077,218,-8640,96,449,-1808,1816,-4282,-7250,1016,-760,523,2467,62.5909375,69.0525,59.7,66.77908188,-0.056054688,-0.0640625,0,0.019645024
302,-33,0.9,1,11.28205128,58.09451279,-8701.234942,10.375,405.4050703,-1781.347973,1605.891115,-4981.565836,-7285.326087,133,-765.25,527.6901513,2383.631948,62.58,69.04,59.7,66.81449874,-0.0109375,-0.0125,0,0.035416859
302,-33,0.9,1,11.79487179,-58.26905198,-8737.710188,-178,326.7967324,-1710.094595,1399.541395,-5488,-7380,-750,-767,532,2246,62.58,69.04,59.7,66.8654802,0,0,0,0.050981459
302,-33,0.9,1,12.30769231,-144.4980908,-8780.83034,-366.375,236.2900283,-1607.293919,1195.420978,-4824,-7730,-220,-760,564,2139,62.54735599,69.00734933,59.7,66.90670255,-0.032644006,-0.032650669,0,0.041222356
302,-33,0.9,1,12.82051282,-214,-8862,-452,157,-1486,992,-4056.52809,-7894.585279,107.4338346,-817.5864662,596.6758817,2196.362963,62.52,68.95019692,59.7,66.95035959,-0.027355994,-0.057152416,0,0.043657036
302,-33,0.9,1,13.33333333,-266,-9190,-416,95,-1283,790,-3608,-8078,262,-908,630,2260,62.52,68.89977495,59.7,67.01089041,0,-0.050421961,0,0.060530822
302,-33,0.9,1,13.84615385,-347.3927956,-9094.6875,-436.3125,67.79390891,-1065.63708,568.1583003,-3844,-8716.383685,-831,-983.4135338,672.9333333,2266.432722,62.50537191,68.85160018,59.7,67.02,-0.014628088,-0.048174777,0,0.009109589
302,-33,0.9,1,14.35897436,-451.2956411,-8885,-481,50.26325798,-835.9274042,333.9677073,-4080,-9488,-1924,-1026,699,2274,62.45417353,68.80482554,59.7,67.02,-0.051198382,-0.046774638,0,0
302,-33,0.9,1,14.87179487,-558.050666,-8675.3125,-525.6875,34.10097806,-654.0040266,106.0432607,-3416,-9950,-268,-899,431,2413,62.40764566,68.75492616,59.7,67.06152832,-0.046527872,-0.049899383,0,0.04152832
302,-33,0.9,1,15.38461538,-648,-8580,-546,11,-580,-97,-3896,-9472,534,-865,375,2564,62.39,68.70353749,59.7,67.09,-0.017645659,-0.051388663,0,0.02847168
302,-33,0.9,1,15.8974359,-709.906361,-8682,-462.1166078,-21.3455646,-672.9732627,-276.2638516,-5604,-8826,606,-797,481,2649,62.39,68.6477123,59.7,67.09,0,-0.055825198,0,0
302,-33,0.9,1,16.41025641,-776,-8784,-300,-75,-821,-422,-5578.046875,-8148.371302,486.71875,-797.5675855,511.5717959,2633.380177,62.36999593,68.64,59.7,67.10665084,-0.020004071,-0.007712296,0,0.016650837
302,-33,0.9,2,16.92307692,-886,-8714,-100,-231,-924,-518,-5509.625,-7394.162934,172.25,-799.4013646,537.2815165,2591.464177,62.32069815,68.64,59.7,67.16518695,-0.049297781,0,0,0.058536115
302,-33,0.9,2,17.43589744,-1072,-8756,-12,-298,-927,-547,-5412.890625,-6614.825973,-272.34375,-802.697871,558.3713713,2530.667206,62.32,68.60328099,59.7,67.20929736,-0.000698148,-0.036719013,0,0.044110408
302,-33,0.9,2,17.94871795,-1132.845636,-8669.62963,-28,-296.0943628,-926.7095585,-559.7186163,-5302,-5861.811497,-782,-807.6536388,575.0835702,2458.404471,62.31624078,68.54498195,59.7,67.25581708,-0.003759218,-0.058299033,0,0.04651972
302,-33,0.9,2,18.46153846,-1182.113525,-8453.703704,-68,-290.4352943,-925.8261429,-567.4949601,-5191.109375,-5186.570584,-1291.65625,-814.4652017,587.6603228,2382.091177,62.27476971,68.49546194,59.7,67.31205939,-0.041471073,-0.049520016,0,0.05624231
302,-33,0.9,2,18.97435897,-1220.033287,-8173,-120,-281.1095592,-924.3316162,-573.0201508,-5094.375,-4640.554311,-1736.25,-823.3290937,596.3438388,2309.14253,62.24296551,68.45972069,59.7,67.32,-0.031804203,-0.035741248,0,0.00794061
302,-33,0.9,2,19.48717949,-1246.83454,-7892.296296,-172,-268.203922,-922.2078414,-578.985308,-5025.953125,-4275.213757,-2050.71875,-834.4418485,601.376328,2246.973736,62.21503167,68.42774994,59.7,67.32,-0.027933834,-0.031970753,0,0
302,-33,0.9,2,20,-1262.746905,-7676.37037,-212,-251.8051474,-919.4366816,-588.0815512,-5000,-4142,-2170,-848,603,2203,62.19492815,68.40539587,59.7,67.35744863,-0.02010352,-0.022354071,0,0.03744863
302,-33,0.9,2,20.51282051,-1268,-7590,-228,-232,-916,-603,-6024,-4792,-1548,-916,472,2177,62.19,68.4,59.7,67.41299702,-0.004928153,-0.005395865,0,0.055548395
302,-33,0.9,2,21.02564103,-84.688,-9177.872,614.0497765,-134.5805056,-249.8556875,-717.5737111,-5666,-4016,-654,-891,304,2192,62.19,68.4,59.7,67.45287696,0,0,0,0.039879938
302,-33,0.9,2,21.53846154,2737.056,-12964.336,2643.189329,76.04318838,1333.182352,-995.2092236,-6105.185185,-3590.666608,-338.7868852,-896.3023943,391.813546,2172.595507,62.18446289,68.4,59.71898438,67.49887628,-0.005537109,0,0.018984375,0.045999321
302,-33,0.9,2,22.05128205,6104.944,-17483.664,5113.903994,341.8571352,3221.348234,-1392.957881,-6920.814815,-3276.555526,-133.3934426,-911.3825665,595.8493142,2122.079903,62.16,68.4,59.76,67.55,-0.024462891,0,0.041015625,0.051123716
302,-33,0.9,2,22.56410256,8926.688,-21270.128,7280.679106,604.847388,4802.876078,-1867.871025,-7360,-3154,-60,-935,827,2052,62.13553711,68.4,59.76,67.60143965,-0.024462891,0,0,0.05143965
302,-33,0.9,2,23.07692308,10110,-22858,8398,807,5466,-2377,-6628,-3992,-214,-1008,1085,1914,62.13,68.41009602,59.76,67.64623448,-0.005537109,0.010096022,0,0.044794827
302,-33,0.9,2,23.58974359,6636.100648,-15312.39515,8699.022224,972.0989523,5208.491894,-3117.364127,-5851.073832,-4860.910096,-806.348301,-1137.455474,1190.291919,1931.5,62.13,68.46990398,59.76,67.6829562,0,0.059807956,0,0.036721722
302,-33,0.9,2,24.1025641,1688,-5952,8828,1061,4863,-3910,-5410,-5640,-1286,-1261,1234,1949,62.12462979,68.47839113,59.76247856,67.73427257,-0.005370211,0.008487149,0.002478559,0.051316367
302,-33,0.9,2,24.61538462,-690,-3460,4812,-518,4731,-4443,-5562.696816,-6272.13177,-1262.491979,-1337.811957,1168.888889,1946.205101,62.09746934,68.46923612,59.77501415,67.81128823,-0.027160452,-0.009155002,0.012535593,0.07701566
302,-33,0.9,2,25.12820513,3908,-9294,394,-906,493,-3584,-5956.585365,-6860.671752,-1202.374332,-1409.474861,1006.111111,1938.034102,62.05903807,68.45336434,59.79275166,67.89583063,-0.038431266,-0.015871783,0.017737507,0.084542408
302,-33,0.9,2,25.64102564,-2153.481481,-4618.518519,1059.053559,-160.8888889,-87.64188296,-2220.914716,-6495.362804,-7400.074255,-1121.256684,-1472.056914,794.5,1924.807547,62.02259577,68.43236249,59.80957118,67.9678902,-0.036442299,-0.021001848,0.016819522,0.072059563
302,-33,0.9,2,26.15384615,-13410.51852,4064.518519,2357.440451,1222.888889,-409.6542748,-709.1795801,-7082.726286,-7884.793591,-1034.748663,-1521.626319,582.8888889,1906.845981,62.00140222,68.4078173,59.81935282,68.00745732,-0.02119355,-0.024545197,0.009781639,0.039567125
302,-33,0.9,2,26.66666667,-19472,8740,3244,1968,-509,5,-7622.372967,-8309.284069,-958.459893,-1554.25128,420.1111111,1884.46995,62,68.36742556,59.82,68.01,-0.001402222,-0.040391734,0.000647179,0.002542678
302,-33,0.9,2,27.17948718,-18442.64062,8067.734371,3559.05766,1911.699647,-495.3906812,-48.15234375,-8018,-8668,-908,-1566,355,1858,62,68.32,59.82,68.01,0,-0.047425564,0,0
302,-33,0.9,2,27.69230769,-15728.875,6290.196414,3838.416358,1761.479146,-458.9734068,-188.28125,-8326.879065,-9006.995024,-875.9144385,-1481.297804,466.7032164,1804.603965,61.9975256,68.30356383,59.83318975,68.03510139,-0.002474398,-0.016436169,0.013189749,0.025101393
302,-33,0.9,2,28.20512821,-11892.17187,3766.274527,4080.131623,1545.359337,-406.3642003,-386.3945313,-8490,-9184,-860,-1360,614,1707,61.99074453,68.29215365,59.85940229,68.09230294,-0.006781067,-0.011410183,0.026212539,0.057201544
302,-33,0.9,2,28.71794872,-7494,854.8571047,4282.258985,1291.361057,-344.1790849,-613.5,-8448.195049,-8763.452053,-993.9226818,-1302.676043,682.194282,1468.483561,61.98061999,68.28390256,59.87860255,68.15445068,-0.010124547,-0.008251084,0.019200267,0.062147746
302,-33,0.9,2,29.23076923,-3095.828125,-2085.167455,4442.853974,1027.505145,-279.0340839,-840.6054687,-8313.056765,-7861.570772,-1336.734253,-1257.479563,734.2638077,1099.85107,61.96811515,68.27694369,59.88,68.20362483,-0.012504835,-0.006958873,0.001397446,0.049174152
302,-33,0.9,2,29.74358974,740.875,-4694.910757,4559.972119,781.8124394,-217.5452205,-1038.71875,-8070,-7018,-1800,-1195,755,771,61.95419322,68.26941014,59.88,68.25,-0.013921934,-0.007533549,0,0.046375165
302,-33,0.9,2,30.25641026,3454.640625,-6615.484404,4631.668951,582.3037782,-166.3285181,-1178.847656,-6336,-6434,-2640,-1073,678,549,61.93981738,68.25943503,59.88,68.29092192,-0.014375842,-0.009975113,0,0.040921925
302,-33,0.9,2,30.76923077,4484,-7488,4656,457,-132,-1232,-5838,-6050,-3260,-885,561,521,61.92520852,68.24434546,59.88,68.33467254,-0.014608852,-0.015089568,0,0.043750617
302,-33,0.9,2,31.28205128,4153.488,-7702.068547,4428.056207,390.4993142,-112.6324003,-1116.907712,-5484,-4966,-4032,-570,331,537,61.90286564,68.21523466,59.88,68.39600846,-0.022342887,-0.0291108,0,0.061335917
302,-33,0.9,2,31.79487179,3365.344,-7881.577115,3860.728621,341.6112112,-98.99210293,-839.6431366,-5780,-4758,-3910,-382,197,516,61.88029854,68.18435672,59.88,68.45415172,-0.022567099,-0.030877936,0,0.058143266
302,-33,0.9,2,32.30769231,2424.656,-8019.05141,3128.772931,299.6734512,-86.73560535,-502.2247049,-6239.856779,-4735.415832,-3262.879326,-331.6680321,232.3559071,360.2455624,61.87,68.17,59.88,68.48,-0.010298538,-0.014356723,0,0.025848275
302,-33,0.9,2,32.82051282,1636.512,-8107.017137,2406.944828,254.0237941,-71.51940518,-206.6708488,-6745.706167,-4724.847676,-2228.112063,-303.0814076,306.3784809,73.90862407,61.87,68.17,59.88,68.48,0,0,0,0
302,-33,0.9,2,33.33333333,1306,-8138,1870,194,-49,-55,-6984,-4712,-1602,-271,371,-173,61.86116598,68.17,59.88,68.48,-0.008834019,0,0,0
302,-33,0.9,2,33.84615385,1512.471456,-8107.341686,1577.830079,80.80876434,12.90471046,-26.66030756,-6876.60773,-4696.378294,-1471.584701,-227.8939659,407.9737555,-330.4963464,61.80883402,68.17,59.88,68.48,-0.052331962,0,0,0
302,-33,0.9,2,34.35897436,1830,-8052,1242,3,61,2,-6604.789182,-4683.54736,-1382.693978,-182.5391458,435.2736826,-466.8227149,61.8,68.18384277,59.88553711,68.49034747,-0.008834019,0.013842773,0.005537109,0.010347468
302,-33,0.9,2,34.87179487,2028,-7996,444,39,1,95,-6244.081744,-4668.30063,-1319.808988,-134.1539395,459.1630259,-589.3076849,61.8,68.245,59.91,68.54066584,0,0.061157227,0.024462891,0.050318376
302,-33,0.9,2,35.38461538,1560,-8092,184,139,-19,164,-5870.022808,-4645.431537,-1267.410889,-81.95674665,485.9050302,-705.2798361,61.8,68.30615723,59.93446289,68.60608903,0,0.061157227,0.024462891,0.065423185
302,-33,0.9,2,35.8974359,1518.293103,-8084.1875,361.1758794,135.2454354,-16.8125,163.5287224,-5558.149763,-4609.733516,-1209.980841,-25.16596692,521.76294,-822.0677479,61.8,68.32,59.94,68.65967875,0,0.013842773,0.005537109,0.053589721
302,-33,0.9,2,36.41025641,1500.114943,-8067,752.8023451,125.9044944,-12,162.1599265,-5384,-4556,-1132,37,573,-947,61.8,68.32,59.94,68.70751153,0,0,0,0.04783278
302,-33,0.9,2,36.92307692,1485.87931,-8049.8125,1149.027638,113.8613062,-7.1875,159.9611673,-5328,-3832,-1026,115,695,-1080,61.80373184,68.3120032,59.94383409,68.74888927,0.00373184,-0.0079968,0.003834085,0.041377737
302,-33,0.9,2,37.43589744,1456,-8042,1340,102,-5,157,-4532.720658,-2829.682383,-1276.3125,235.5730063,691.7281705,-1422.477632,61.81877344,68.2797712,59.96058042,68.79203168,0.0150416,-0.032232,0.016746337,0.043142414
302,-33,0.9,2,37.94871795,1338.62069,-8052.9375,1352.277832,91.58135159,-6.847061258,140.5184767,-2900.751696,-1644.662118,-1827,388.4782333,679.8584547,-1941.619006,61.83919104,68.2360192,59.98678608,68.83204669,0.0204176,-0.043752,0.026205655,0.040015007
302,-33,0.9,2,38.46153846,1137.885057,-8077,1357.512242,80.692593,-11.67549669,105.6191243,-1291.406886,-655.8107943,-2377.6875,545.1443436,656.3095116,-2415.700877,61.85826464,68.1951472,60.01823059,68.86301229,0.0190736,-0.040872,0.031444512,0.030965604
302,-33,0.9,2,38.97435897,948.2068966,-8101.0625,1363.490531,67.45753791,-18.41618377,64.16020965,-564,-242,-2628,677,618,-2623,61.86927424,68.1715552,60.0506935,68.8790065,0.0110096,-0.023592,0.032462909,0.015994206
302,-33,0.9,2,39.48717949,864,-8112,1378,50,-26,28,-1854,-568,-2258,773,-340,-2210,61.87,68.17,60.09114069,68.84746094,0.00072576,-0.0015552,0.040447189,-0.031545562
302,-33,0.9,2,40,962,-8080,1506,18,-37,0,-2842.372257,-1100.247461,-1656.797739,964.2287201,-735.8388918,-2223.71221,61.86995941,68.17009472,60.11984734,68.8,-4.06E-05,9.47E-05,0.028706656,-0.047460938
302,-33,0.9,2,40.51282051,931.216,-8072.32403,1470.224,-13.17644624,-30.552,-57.93843459,-3344,-1724,-1060,1171,-921,-2257,61.8653998,68.17991232,60.10522288,68.8,-0.004559611,0.0098176,-0.014624466,0
302,-33,0.9,2,41.02564103,857.808,-8067.998218,1384.912,-44.82025606,-15.176,-145.7821251,-3309.3125,-2416.645009,-622.8556989,1310.152821,-966.8452496,-2376.252665,61.85436681,68.20048192,60.07960716,68.8,-0.011032989,0.0205696,-0.025615713,0
302,-33,0.9,2,41.53846154,770.192,-8065.110391,1283.088,-74.77584275,3.176,-249.0565982,-3233,-3183.524604,-222.3757987,1427.14075,-999.3068885,-2613.772614,61.8384017,68.22412352,60.06131895,68.8,-0.015965112,0.0236416,-0.018288215,0
302,-33,0.9,2,42.05128205,696.784,-8061.748376,1197.776,-100.8876196,18.552,-353.2873809,-3156.6875,-3820.141897,85.79200083,1538.558304,-1018.615083,-2906.656257,61.81904572,68.24315712,60.0844043,68.8,-0.019355978,0.0190336,0.023085347,0
302,-33,0.9,2,42.56410256,666,-8056,1162,-121,25,-444,-3122,-4122,246,1661,-1025,-3192,61.79749017,68.24920212,60.12,68.8,-0.021555552,0.006044997,0.035595703,0
302,-33,0.9,2,43.07692308,672,-8044,1276,-134,20,-518,-3164,-4179.990909,306.6720885,1804.178662,-914.0059231,-3480.931918,61.75418962,68.1928618,60.12,68.8,-0.043300547,-0.056340322,0,0
302,-33,0.9,2,43.58974359,623,-8061,1352.730769,-153.5011704,-14,-607.0544892,-3242,-4218.217677,348.4471553,1955.256031,-674.3451796,-3790.126549,61.74,68.17,60.12,68.8,-0.014189624,-0.022861795,0,0
302,-33,0.9,2,44.1025641,574,-8078,1390,-180,-44,-715,-3284,-4232,364,2097,-446,-4065,61.74,68.17,60.12,68.8,0,0,0,0
302,-33,0.9,2,44.61538462,610,-7990,1372,-220,-23,-863,-3251.862368,-4227.9375,260.3651426,2222.968,-246.6725071,-4295.7172,61.74,68.17,60.12,68.8,0,0,0,0
302,-33,0.9,2,45.12820513,750.6611738,-7920.668655,1088.627103,-229.9559229,-30.83903809,-954.1281065,-3169.799649,-4219,14.30704698,2341.164768,-36.98667298,-4507.560972,61.74,68.17,60.12,68.79920212,0,0,0,-0.000797883
302,-33,0.9,2,45.64102564,967.6409317,-7862.445439,593.5357737,-235.9779614,-46.9002984,-1025.019207,-3059.337105,-4210.0625,-276.9045721,2456.029152,128.6924976,-4698.624257,61.74,68.17,60.12,68.7428618,0,0,0,-0.056340322
302,-33,0.9,2,46.15384615,1114,-7838,330,-238,-60,-1087,-2942,-4206,-516,2572,196,-4867,61.74,68.17,60.12,68.72,0,0,0,-0.022861795
302,-33,0.9,2,46.66666667,1169.517241,-7849,406.2263948,-186.5,-66.39244903,-1139.907119,-2765.511424,-4346.986772,-717.0877455,2696.81109,161.8667274,-5017.144442,61.74,68.17,60.12,68.72,0,0,0,0
302,-33,0.9,2,47.17948718,1194,-7860,534,-135,-72,-1193,-2556.755712,-4670.640212,-901.3216505,2821.175271,83.51123254,-5149.913582,61.73113115,68.19217213,60.12530918,68.72,-0.008868854,0.022172135,0.00530918,0
302,-33,0.9,2,47.69230769,1189.851852,-7859.313866,646.7170916,-140.330206,-78.01885969,-1262.184895,-2456,-5028,-982,2924,-3,-5258,61.70592036,68.2551991,60.14326713,68.72,-0.025210786,0.063026964,0.017957951,0
302,-33,0.9,2,48.20512821,1179.481481,-7857.315482,771.1910212,-154.5899926,-83.74319659,-1342.828027,-2522.37037,-5385.466577,-941.2344426,3013.640365,-109.6883456,-5342.568583,61.68371483,68.31071291,60.16756397,68.72,-0.022205526,0.055513816,0.024296835,0
302,-33,0.9,2,48.71794872,1166,-7854.094875,896.1890327,-175.1831126,-89.63824488,-1429.58025,-2645.62963,-5791.893472,-843.5799962,3091.042405,-228.2209534,-5413.375445,61.68,68.32,60.1976356,68.72,-0.003714834,0.009287086,0.030071637,0
302,-33,0.9,2,49.23076923,1152.518519,-7849.742075,1010.47837,-199.5133186,-96.16923876,-1517.092417,-2712,-6222,-726,3124,-292,-5476,61.68,68.32,60.23656506,68.72,0,0,0.038929455,0
302,-33,0.9,2,49.74358974,1142.148148,-7844.347107,1102.826278,-224.9843635,-103.8014124,-1600.015383,-2710.962963,-6729.890502,-536.8644482,3118.914087,-304.2754036,-5541.506547,61.65152832,68.32,60.24,68.69332106,-0.02847168,0,0.003434943,-0.026678942
302,-33,0.9,2,50.25641026,1138,-7838,1162,-249,-113,-1673,-2709.037037,-7266.101371,-306.321113,3106.050397,-312.1932574,-5601.1954,61.61,68.32,60.24,68.63668267,-0.04152832,0,0,-0.056638385
302,-33,0.9,2,50.76923077,1228.896,-7822.503965,1199.547121,-273.0416843,-129.1595985,-1732.427426,-2708,-7650,-194,3089,-315,-5631,61.61,68.32,60.24,68.61072693,0,0,0,-0.025955748
302,-33,0.9,2,51.28205128,1445.648,-7792.783695,1232.910511,-299.6180329,-153.0345483,-1783.203404,-2818.9375,-7890.486548,-196.4336637,3061.052144,-311.0322142,-5637.035162,61.61,68.32,60.24,68.59069573,0,0,0,-0.020031196
302,-33,0.9,2,51.79487179,1704.352,-7753.611443,1259.700341,-327.6735394,-178.1296989,-1832.76567,-3063,-8097.765821,-203.9897698,3017.752444,-298.9192377,-5641.420144,61.61,68.32,60.24,68.56630592,0,0,0,-0.024389814
302,-33,0.9,2,52.30769231,1921.104,-7709.759461,1277.52678,-356.1526973,-197.9498996,-1888.551957,-3307.0625,-8243.162183,-217.050991,2966.076521,-278.3466425,-5644.095054,61.61,68.32,60.24,68.52546584,0,0,0,-0.040840073
302,-33,0.9,2,52.82051282,2012,-7666,1284,-384,-206,-1958,-3418,-8298,-236,2913,-249,-5645,61.61,68.32,60.24,68.47529649,0,0,0,-0.050169348
302,-33,0.9,2,53.33333333,1959.111111,-7611.307585,1199.481481,-411.1794302,-200.2962963,-2057.67652,-3364,-8214,-318,2855,-136,-5628,61.61,68.32,60.24,68.42803926,0,0,0,-0.047257235
302,-33,0.9,3,53.84615385,1860.888889,-7550.030137,1042.518519,-438.4613896,-189.7037037,-2182.403152,-3332.858968,-8330.769231,-298.472973,2800.04538,47.43152454,-5605.110119,61.61,68.31699219,60.24,68.38062347,0,-0.003007813,0,-0.047415789
302,-33,0.9,3,54.35897436,1808,-7510,958,-466,-184,-2307,-3294,-8566,-250,2737,302,-5571,61.61,68.29152832,60.24,68.33339972,0,-0.025463867,0,-0.047223751
302,-33,0.9,3,54.87179487,2144,-7496,1134,-494,-197,-2423,-3106.158127,-8905.831057,-29.89573844,2641.28709,687.1048728,-5499.596799,61.61,68.2609375,60.24,68.2867186,0,-0.03059082,0,-0.046681119
302,-33,0.9,3,55.38461538,2613.523994,-7456.671543,1175.829753,-500.2600927,-210.0919726,-2376.796301,-2777.609393,-9349.046729,347.6139285,2523.98868,1175.37987,-5387.186115,61.61,68.25,60.24,68.24107599,0,-0.0109375,0,-0.045642608
302,-33,0.9,3,55.8974359,3170.910217,-7395.319149,1193.963142,-502.8107217,-223.1912061,-2270.540135,-2484,-9742,632,2416,1625,-5257,61.61,68.25,60.24,68.19823603,0,0,0,-0.042839967
302,-33,0.9,3,56.41025641,3636.841331,-7338.807181,1213.614959,-505.7059898,-239.1948366,-2152.763902,-2310.942658,-10072.16365,779.5786517,2333.288744,2064.254425,-5108.53008,61.61,68.25283555,60.23886578,68.14863079,0,0.002835553,-0.001134221,-0.049605234
302,-33,0.9,3,56.92307692,3832,-7314,1260,-513,-261,-2072,-2112,-10284,850,2249,2312,-4919,61.61,68.27973761,60.22810496,68.08787636,0,0.026902056,-0.010760822,-0.06075443
302,-33,0.9,3,57.43589744,3300,-7326,1564,-588,-304,-2037,-1623.485685,-10355.53538,783.379493,2151.676659,2273.473641,-4680.311058,61.61,68.3227044,60.21091824,68.02083072,0,0.042966791,-0.017186716,-0.067045637
302,-33,0.9,3,57.94871795,2986.812685,-7288.313339,1401.8125,-635.1516628,-322.0589163,-2102.46875,-874.4901109,-10408.9759,612.5119814,2046.078137,2165.513042,-4389.946286,61.61,68.36643618,60.19342553,67.95272167,0,0.043731778,-0.017492711,-0.06810905
302,-33,0.9,3,58.46153846,2722.611276,-7202.83557,1045,-675.7737003,-335.4717713,-2246.5,-131.7494817,-10442.42846,380.888479,1923.190547,1999.545922,-4046.108372,61.61,68.3956332,60.18174672,67.88877701,0,0.029197018,-0.011678807,-0.063944669
302,-33,0.9,3,58.97435897,2540.104228,-7110.940017,688.1875,-704.2588876,-344.6487407,-2390.53125,338,-10454,132,1774,1787,-3647,61.61,68.4,60.18,67.83475923,0,0.004366803,-0.001746721,-0.054017778
302,-33,0.9,3,59.48717949,2472,-7054,526,-715,-350,-2456,564.08546,-10273.43976,-267.7559907,1548.934387,1259.377057,-3072.405948,61.61,68.4,60.18,67.78569744,0,0,0,-0.049061789
302,-33,0.9,3,60,2575.84488,-7033.496537,570.4444444,-701.5507246,-352.7675909,-2447.278225,668,-9996,-546,1292,584,-2468,61.61,68.4142257,60.17745638,67.72361359,0,0.014225698,-0.002543615,-0.062083846
302,-33,0.9,3,60.51282051,2840.659171,-7020.617105,681.5555556,-667.6956522,-354.3561181,-2424.77921,661.9948204,-9815.860471,-432.5935384,1061.047677,55.48108299,-2004.318901,61.61,68.45638999,60.16931544,67.6528546,0,0.042164288,-0.008140949,-0.070758989
302,-33,0.9,3,61.02564103,3196.362352,-7011.294721,826,-623.173913,-355.4196022,-2394.002417,643.4861878,-9655.220295,-177.7494357,833.2946719,-450.2661335,-1585.150235,61.61,68.51503534,60.15662726,67.57545368,0,0.058645355,-0.012688175,-0.077400919
302,-33,0.9,3,61.53846154,3572.873898,-7001.462399,970.4444444,-577.7246377,-356.6120635,-2360.447309,611.7344613,-9502.469972,90.46938488,619.144331,-896.1302832,-1207.406451,61.61,68.57850919,60.14047517,67.49336829,0,0.063473852,-0.016152086,-0.082085396
302,-33,0.9,3,62.05128205,3900.113289,-6987.053154,1081.555556,-541.0869565,-358.5875227,-2329.613349,566,-9346,244,429,-1245,-868,61.61,68.63515897,60.12194249,67.40855587,0,0.056649778,-0.018532681,-0.084812422
302,-33,0.9,3,62.56410256,4108,-6964,1126,-523,-362,-2307,378,-9184,280,274,-1476,-584,61.61,68.68416452,60.08895096,67.31638634,0,0.049005547,-0.032991536,-0.092169531
302,-33,0.9,3,63.07692308,4197.032093,-6873.817308,640,-519.5532223,-390.0872483,-2294.22109,118,-8786,278,78,-1758,-217,61.61,68.72799591,60.05535047,67.22182392,0,0.04383139,-0.033600487,-0.094562417
302,-33,0.9,3,63.58974359,4288,-6798,154,-516,-416,-2280,38.01240964,-8519.846108,291.080579,-73.34658715,-1937.497933,75.98519255,61.61,68.77048128,60.0374514,67.13334667,0,0.042485369,-0.017899069,-0.08847725
302,-33,0.9,3,64.1025641,4534.468527,-6863,156.8358566,-493.3748151,-405.84375,-2246.061207,-8.486240971,-8309.478609,324.1611579,-202.3661303,-2076.915633,330.6484175,61.61,68.81280024,60.0230527,67.04652261,0,0.04231896,-0.014398698,-0.086824056
302,-33,0.9,3,64.61538462,4909.360913,-7006,165.7289509,-451.1109467,-383.5,-2194.217468,-74,-8224,368,-297,-2133,530,61.61,68.84903079,60.00477174,66.95814439,0,0.036230555,-0.018280965,-0.088378221
302,-33,0.9,3,65.12820513,5252.072842,-7149,181.2575698,-410.291605,-361.15625,-2140.764995,-239.4814977,-8244.9375,464.5772845,-369.8620881,-2103.342354,699.3308016,61.61,68.87325095,59.96498328,66.86550182,0,0.024220154,-0.03978846,-0.092642567
302,-33,0.9,3,65.64102564,5402,-7214,204,-392,-351,-2102,-483.2613313,-8291,617.0686973,-434.7107449,-2025.912943,856.0162681,61.61,68.88,59.94,66.77116428,0,0.006749054,-0.024983278,-0.094337542
302,-33,0.9,3,66.15384615,4851,-7192.086957,472.6355245,-451.4899329,-392.9542079,-2076.002704,-703.9104992,-8337.0625,758.0257615,-481.2040294,-1918.027061,971.1936005,61.61,68.88,59.94,66.67661833,0,0,0,-0.094545948
302,-33,0.9,3,66.66666667,4300,-7130,728,-520,-460,-2063,-800,-8358,820,-499,-1797,1016,61.61131693,68.88612253,59.93505394,66.58711751,0.001316927,0.006122532,-0.004946061,-0.089500826
302,-33,0.9,3,67.17948718,4430.79845,-6185.913043,605,-535.0100671,-512.4166598,-2110,-786.0246544,-8318.592593,819.4074074,-491.9800435,-1646.828549,1009.037037,61.61881478,68.9173624,59.91264401,66.50213616,0.007497854,0.03123987,-0.022409933,-0.084981347
302,-33,0.9,3,67.69230769,4676,-5282,482,-541,-553,-2157,-748.7900051,-8220.074074,817.9259259,-472.9139169,-1445.419205,991.6296296,61.63182409,68.96235264,59.8884022,66.41833504,0.013009313,0.044990238,-0.024241807,-0.083801124
302,-33,0.9,3,68.20512821,4991.275406,-5427.751943,492.7279476,-533.34375,-572.7136183,-2128.55335,-695.3331336,-8092,816,-444.7922348,-1200.951824,969,61.64905572,69.00661917,59.88,66.33173984,0.017231628,0.044266534,-0.008402198,-0.086595195
302,-33,0.9,3,68.71794872,5392.594882,-5779.671849,521.4411937,-516.5,-584.8031198,-2063.2256,-632.6911213,-7963.925926,814.0740741,-410.6056116,-921.6062587,946.3703704,61.66922052,69.03568793,59.88,66.23441013,0.020164798,0.029068759,0,-0.097329712
302,-33,0.9,3,69.23076923,5749.616916,-6209.75583,562.9338429,-499.65625,-598.2410615,-1991.03505,-567.9010496,-7865.407407,812.5925926,-373.3446619,-615.5623658,928.962963,61.69908275,69.02503802,59.87832,66.17607024,0.029862228,-0.010649916,-0.00168,-0.058339893
302,-33,0.9,3,69.74358974,5932,-6590,612,-492,-622,-1942,-508,-7826,812,-336,-291,922,61.73945427,68.96383792,59.86704,66.13179413,0.040371525,-0.061200094,-0.01128,-0.044276103
302,-33,0.9,3,70.25641026,5977.755454,-6880.779473,717.6819019,-507.7084511,-730.4358673,-1915.021689,-448,-8236,1078,-290,121,925,61.74,68.92987706,59.85,66.09455284,0.000545727,-0.033960865,-0.01704,-0.037241299
302,-33,0.9,3,70.76923077,6008.655505,-7163.565856,860.3965065,-548.9724578,-911.1537641,-1893.677511,-460,-8616.050725,1437.039379,-271.5963855,496.0405787,964.6701699,61.74,68.90060553,59.83296,66.06705463,0,-0.029271532,-0.01704,-0.027498206
302,-33,0.9,3,71.28205128,6020,-7492,932,-607,-1043,-1885,-472,-8822,1658,-264,845,1045,61.74,68.88258392,59.82168,66.0520078,0,-0.018021603,-0.01128,-0.015046825
302,-33,0.9,3,71.79487179,5499,-8045.284577,804.8725124,-770.1598231,-1105.756461,-1897.890046,-414.0886076,-8798.577963,1652.866667,-280.2608696,1222.445197,1189.802812,61.74,68.91710938,59.82,66.05,0,0.034525452,-0.00168,-0.002007804
302,-33,0.9,3,72.30769231,4978,-8414,526,-905,-1135,-1928,-272,-8736,1638,-308,1472,1355,61.74,69.03820313,59.82,66.05,0,0.12109375,0,0
302,-33,0.9,3,72.82051282,5075.752446,-7714.215281,-84.9444385,-910.2098361,-1060.437026,-2005.560619,302.0886076,-8278.422037,1268.133333,-337.7391304,1538.057024,1461.579543,61.74513216,69.04,59.8555957,66.05,0.00513216,0.001796875,0.035595703,0
302,-33,0.9,3,73.33333333,5316,-6842,-676,-912,-960,-2101,792,-7860,908,-356,1564,1571,61.75940736,69.04,59.87868105,66.05,0.0142752,0,0.023085347,0
302,-33,0.9,3,73.84615385,5948,-6604,-858,-842,-921,-2162,-2061,-12759,4633,192,-510.840304,1714.842975,61.77713856,69.04,59.86039284,66.05,0.0177312,0,-0.018288215,0
302,-33,0.9,3,74.35897436,5835,-6765.145833,-343,-831.5,-965.5,-2148,-4914,-17658,8358,740,-2927,1917,61.79256576,69.04,59.83477712,66.05,0.0154272,0,-0.025615713,0
302,-33,0.9,3,74.87179487,5722,-7080,172,-828,-1010,-2134,-3952.317757,-16493.23335,8160.16642,679.1695205,-3500.159696,2427.402576,61.79992896,69.04,59.82015266,66.05,0.0073632,0,-0.014624466,0
302,-33,0.9,3,75.38461538,5901,-7480.149878,-573,-894,-991.1222707,-2170.697941,-2114,-14180,7680,537,-3732,2813,61.76735599,69.04,59.82,66.08808467,-0.032572966,0,-0.000152656,0.038084673
302,-33,0.9,3,75.8974359,6080,-7948,-1318,-960,-944,-2250,168.0854572,-10223.76665,5849.83358,86.83047945,-3333.306781,2575.505393,61.74060736,69.03925621,59.81971968,66.12,-0.026748634,-0.000743794,-0.00028032,0.031915327
302,-33,0.9,3,76.41025641,5379,-8510.704289,-1212.288676,-897.5,-733.8777293,-2431.802059,2576,-7416,4302,-282,-2529,2104,61.75886976,69.01592187,59.81129088,66.12,0.0182624,-0.023334331,-0.0084288,0
302,-33,0.9,3,76.92307692,4678,-8852,-1002,-835,-552,-2571,4828.2323,-13590,7591,172,-1080.693219,1298.494607,61.79335616,68.96814055,59.79537408,66.12,0.0344864,-0.047781325,-0.0159168,0
302,-33,0.9,4,77.43589744,5528.888889,-8452.222222,-679.5439956,-862.8061666,-561.7286822,-2526.549331,6078,-19764,10880,626,-38,727,61.83158656,68.90715579,59.77772928,66.12,0.0382304,-0.060984761,-0.0176448,0
302,-33,0.9,4,77.94871795,7109.111111,-7709.777778,-275.1911278,-925.0567776,-588.124031,-2422.765328,5868,-16295,7247.02828,483.4566845,-158.5,1562.787719,61.86108096,68.84421115,59.76411648,66.12,0.0294944,-0.062944638,-0.0136128,0
302,-33,0.9,4,78.46153846,7960,-7310,-6,-990,-627,-2304,5658,-12826,2926,168,-279,2498,61.87,68.78903612,59.76,66.11699219,0.00891904,-0.055175027,-0.00411648,-0.003007813
302,-33,0.9,4,78.97435897,7628,-7390,84,-1049,-721,-2168,5856,-13134,2140.146328,-624.4566845,-231.7933473,2608.928347,61.87,68.72881361,59.76,66.0609375,0,-0.060222512,0,-0.056054687
302,-33,0.9,4,79.48717949,7663.259259,-7257.777778,-76.74074074,-1051.415642,-710.1111111,-2070.292757,6054,-13442,1262,-1244,-134,2722,61.87,68.72,59.76,66.05,0,-0.008813612,0,-0.0109375
302,-33,0.9,4,80,7728.740741,-7012.222222,-375.2592593,-1052.652266,-689.8888889,-1984.003795,5460,-6992,-3952,-840,14,3304,61.87,68.72,59.76,66.05,0,0,0,0
302,-33,0.9,4,80.51282051,7764,-6880,-536,-1053,-679,-1860,948,-9320,-3480,-277,-700,3894,61.87,68.72,59.76,66.05,0,0,0,0
302,-33,0.9,4,81.02564103,7682.808511,-6947,-502.9444444,-1046,-737.5,-1555.718666,-1925.545376,-8897.407407,-1188.550333,-149.1970394,-459.1481481,3577.148148,61.87553711,68.72522959,59.76,66.05,0.005537109,0.005229594,0,0
302,-33,0.9,4,81.53846154,7476,-7014,-468,-1039,-796,-1245,-4157.883799,-8112.592593,2318.724834,-73.15407525,-11.85185185,2905.851852,61.92446289,68.78328657,59.76,66.05,0.048925781,0.058056979,0,0
302,-33,0.9,4,82.05128205,6495.397294,-6573.59982,-465.0555556,-1078,-774.9719626,-1099.208803,-5056,-7690,4134,-48,229,2299,61.93,68.82888725,59.76,66.05,0.005537109,0.045600676,0,0
302,-33,0.9,4,82.56410256,5508,-6064,-464,-1117,-724,-1006,-2732,-8198,3196,-333,218,1914,61.93,68.8740031,59.76,66.05,0,0.045115855,0,0
302,-33,0.9,4,83.07692308,5288.794195,-5987.755881,-1103.086207,-1032.738584,-566.1083294,-957.1449406,-2584,-7918,1226,-419,126,1743,61.97152832,68.98560339,59.76,66.00847168,0.04152832,0.111600287,0,-0.04152832
302,-33,0.9,4,83.58974359,5202,-5902,-1878,-894,-368,-913,-2596.962963,-7929.939036,1282.149079,-369.7407407,78.15594542,1532.977111,62,69.04,59.76,65.98,0.02847168,0.054396609,0,-0.02847168
302,-33,0.9,4,84.1025641,5494,-5260,-2060,-787,-248,-842,-2621.037037,-7959.211406,1424.520381,-278.2592593,43.41130604,1307.114739,62,69.04,59.76,65.98,0,0,0,0
302,-33,0.9,4,84.61538462,6030.497952,-5019.473337,-1711.101862,-679.1521226,-252.9189815,-659.8872097,-2634,-7996,1614,-229,30,1117,62.01898438,69.08159215,59.76,65.98,0.018984375,0.041592153,0,0
302,-33,0.9,4,85.12820513,6394,-4922,-1134,-619,-265,-405,-2546,-8050,1942,-283,45,986,62.06,69.2,59.76,65.98,0.041015625,0.118407847,0,0
302,-33,0.9,4,85.64102564,6335.960396,-5027,-569.898138,-620.1710526,-305.8421959,-133.07859,-2462,-8038,1328,-341,68,808,62.06,69.24981907,59.76,65.98,0,0.04981907,0,0
302,-33,0.9,4,86.15384615,6202,-5132,-234,-623,-356,163,-2098,-7956,802,-337,85,736,62.06163035,69.29410679,59.76,65.98,0.001630353,0.044287723,0,0
302,-33,0.9,4,86.66666667,5918,-4742,-290,-630,-383,468,-2099.778017,-7956.3125,794.8065743,-314.4496363,76.875,727.618324,62.08403066,69.33963879,59.76,65.98,0.022400312,0.045532001,0,0
302,-33,0.9,4,87.17948718,5632.346488,-4057.539988,-438.3251351,-582.5407925,-252.770318,602.8875473,-2105.241379,-7957,792.4249928,-269.8632409,59,724.5694066,62.11461196,69.38663581,59.74101563,66.00214844,0.030581295,0.04699702,-0.018984375,0.022148437
302,-33,0.9,4,87.69230769,5242,-3006,-696,-470,22,748,-2114.584052,-7957.6875,790.3309148,-219.0952251,41.125,721.4857859,62.13,69.44,59.7,66.05,0.01538804,0.053364186,-0.041015625,0.047851563
302,-33,0.9,4,88.20512821,4230.10987,-457.3634021,-1270.521849,-102.0596038,499.1150014,1323.151515,-2128,-7958,784,-178,33,713,62.13,69.52102179,59.7,66.05,0,0.081021788,0,0
302,-33,0.9,4,88.71794872,3078,1466,-1864,228,1032,1788,-2182,-7954,732,-151,52,633,62.13,69.61566742,59.7,66.06696427,0,0.09464563,0,0.016964269
302,-33,0.9,4,89.23076923,2405.827145,1038.343982,-2187.797084,255.8116733,1464.155317,1772.5,-2053,-7968.884615,801.2372654,-125.7354015,40.5,594.5765306,62.13,69.67585274,59.7,66.17621061,0,0.060185324,0,0.109246341
302,-33,0.9,4,89.74358974,1820,64,-2342,287,1696,1757,-1924,-7990,948,-112,29,565,62.15214126,69.65047832,59.72214126,66.23943175,0.022141258,-0.025374419,0.022141258,0.063221139
302,-33,0.9,4,90.25641026,1202,-1916,-1844,719,871,2165,-2038,-8000,1186,-114,32,534,62.19,69.6,59.76,66.27,0.037858742,-0.050478323,0.037858742,0.030568251
302,-33,0.9,4,90.76923077,1064.45803,-2999.838126,-421.3720576,1030.14431,590.6388312,2700.390865,-2058.826996,-7982.527881,1443.133028,-149.6446523,49.40584834,493.18213,62.19,69.6,59.76,66.22583147,0,0,0,-0.044168532
302,-33,0.9,4,91.28205128,982.8956817,-3799.919063,1503.647305,1282.794377,417.0275342,3294.348757,-2066,-7950,1590,-209,77,461,62.19645996,69.59490234,59.76,66.2,0.006459961,-0.005097656,0,-0.025831468
302,-33,0.9,4,91.79487179,956,-4112,2470,1387,255,3794,-1812,-7914,1272,-263,105,450,62.25354004,69.53728516,59.76,66.2,0.057080078,-0.057617187,0,0
302,-33,0.9,4,92.30769231,1756,-3758,2037.846688,1342,71.2742433,4126.123041,-1586.437799,-7925,1114.987207,-286.4711234,100.193038,486.4626556,62.26,69.47638672,59.76,66.16746094,0.006459961,-0.060898438,0,-0.032539062
302,-33,0.9,4,92.82051282,2556,-3404,1228,1297,-95,4448,-1466,-7936,1046,-303,91,550,62.26,69.44,59.75946502,66.12039468,0,-0.036386719,-0.000534979,-0.047066257
302,-33,0.9,4,93.33333333,2482.494475,-3484.570222,75.1533123,1439.394268,-265.7219989,4897.152633,-1538,-7912,1046,-318,80,608,62.26,69.44,59.72016461,66.15723879,0,0,-0.039300412,0.036844111
302,-33,0.9,4,93.84615385,2320,-3632,-700,1687,-367,5361,-1657.124038,-7906.320652,1029.125,-336.9313257,80.58229472,657.8103811,62.26553711,69.43483378,59.7,66.22586943,0.005537109,-0.005166225,-0.020164609,0.068630643
302,-33,0.9,4,94.35897436,1979.144172,-3765.233212,-699.1721133,1932.464842,-378.7407407,5748.644134,-1809.276923,-7903.521739,992,-358.5302831,82.30278592,704.1512124,62.31446289,69.37698803,59.7,66.33893261,0.048925781,-0.05784575,0,0.113063176
302,-33,0.9,4,94.87179487,1473.829168,-3920.43146,-696.1220044,2191.869952,-385.7037037,6107.996714,-1940.291346,-7900.961957,954.875,-380.614099,85.12188416,745.9164375,62.32,69.32695412,59.7,66.35,0.005537109,-0.050033902,0,0.01106739
302,-33,0.9,4,95.38461538,1046,-4132,-690,2381,-388,6465,-1996,-7896,938,-401,89,782,62.32,69.28,59.7,66.35,0,-0.046954124,0,0
302,-33,0.9,4,95.8974359,788,-4526,-60,2476,-199,6827,-1947.745025,-7876.23913,970,-417.8771591,108.598607,806.8368828,62.36785156,69.21849223,59.7,66.35,0.047851562,-0.061507769,0,0
302,-33,0.9,4,96.41025641,702,-4818,68,2480,11,7031,-1846,-7860,1002,-436,126,837,62.39,69.2,59.7,66.3289945,0.022148438,-0.018492231,0,-0.021005496
302,-33,0.9,4,96.92307692,915.8181958,-5211.614267,-152.3143394,2436.692232,421.6843012,7247.458769,-1636.156992,-7867.777778,979.1851852,-461.431775,124.962963,930.1525474,62.39,69.2,59.7,66.21236515,0,0,0,-0.116629351
302,-33,0.9,4,97.43589744,1335.414169,-5660.614841,-600.6286788,2342.051131,986.914057,7452.258456,-1358.522941,-7882.222222,936.8148148,-491.5519615,123.037037,1081.176307,62.39,69.2,59.7,66.22583147,0,0,0,0.013466314
302,-33,0.9,4,97.94871795,1628,-6068,-958,2249,1541,7546,-1220,-7890,914,-521,122,1228,62.39,69.2,59.7,66.27,0,0,0,0.044168532
302,-33,0.9,4,98.46153846,1710,-6388,-1118,2176,2023,7549,-1559,-7862.472617,954.3403909,-545.4374422,126.2608359,1359.230194,62.4218202,69.2,59.7,66.22214844,0.031820199,0,0,-0.047851562
302,-33,0.9,4,98.97435897,2011.113171,-6803.823408,-1043.086331,2084.845866,2589.9479,7477.802432,-1898,-7808,1050,-574,137,1466,62.46897975,69.2,59.6915978,66.2,0.047159549,0,-0.008402198,-0.022148438
302,-33,0.9,4,99.48717949,2476,-7192,-884,1983,3076,7366,-1890,-7736,1272,-623,168,1524,62.51594014,69.2,59.64494606,66.2,0.046960387,0,-0.04665174,0
302,-33,0.9,4,100,2996.844778,-7417.953519,-626.9786041,1882.407466,3410.755312,7281.297045,-1923.988044,-7690.835738,1069.259259,-681.7614254,200.8918257,1598.666687,62.52,69.19072822,59.64,66.2,0.004059865,-0.009271781,-0.004946061,0
302,-33,0.9,1,0,3588,-7662,-284,1761,3576,7220,-1998.864977,-7655.392029,692.7407407,-741.3135485,233.0275993,1682.676522,62.52,69.15818237,59.64,66.2,0,-0.032545844,0,0
302,-33,0.9,1,0.588235294,4293.672824,-8119.101047,79.13187863,1576.174673,3439.807218,7199.374661,-2074,-7624,490,-776,255,1762,62.52,69.1269722,59.64,66.2,0,-0.031210173,0,0
302,-33,0.9,1,1.176470588,4864,-8802,502,1344,3136,7175,-2136,-7596,610,-785,265,1830,62.52,69.14240586,59.64,66.2,0,0.015433661,0,0
302,-33,0.9,1,1.764705882,5096,-9924,1034,1072,2559,7040,-2063,-7572.386139,756.6619718,-817.6188035,287.6327189,1925.159163,62.52,69.2668105,59.64,66.2,0,0.124404641,0,0
302,-33,0.9,1,2.352941176,4996,-10849.93407,1250.304874,891.8954623,2093.782099,6818.543593,-1990,-7560,844,-866,319,2031,62.52,69.27460413,59.64,66.2,0,0.007793632,0,0
302,-33,0.9,1,2.941176471,4896,-11332,1340,733,1716,6516,-2120,-7566,806,-916,355,2132,62.52,69.25225006,59.64,66.2,0,-0.022354071,0,0
302,-33,0.9,1,3.529411765,5055.668224,-11158.16175,1194.830435,563.772338,1440.411447,6068.440158,-2005,-7508.674699,926,-977.8275692,400,2250.249909,62.52,69.22027931,59.64,66.2,0,-0.031970753,0,0
302,-33,0.9,1,4.117647059,5272,-10750,954,384,1198,5593,-1890,-7410,1046,-1034,427,2370,62.52,69.18453806,59.64,66.2,0,-0.035741248,0,0
302,-33,0.9,1,4.705882353,5358,-9834,764,173,947,5246,-2369.905585,-7321.862535,714.7581994,-1077.581522,425.5,2502.319911,62.52,69.13501805,59.64,66.2,0,-0.049520016,0,0
302,-33,0.9,1,5.294117647,5261.759839,-9359.577245,329.2072243,41.3493228,598.1813604,4835.760471,-3246,-7234,128,-1100,424,2579,62.52,69.07671901,59.64,66.22291294,0,-0.058299033,0,0.022912938
302,-33,0.9,1,5.882352941,5014,-9148,16,-21,166,4376,-4162,-7156,-434,-1070,457,2521,62.52,69.04,59.64,66.27315795,0,-0.036719013,0,0.050245014
302,-33,0.9,1,6.470588235,4238,-9350,44,-11,-383,3852,-3617,-7170.740385,143,-1070.3125,528.3644165,2450.169096,62.52,69.04,59.64,66.29884471,0,0,0,0.025686757
302,-33,0.9,1,7.058823529,3673.930987,-9162.104294,354.7218419,11.72666667,-817.0947736,3426.081947,-3072,-7198,720,-1071,579,2408,62.52,69.03113748,59.64,66.31966722,0,-0.008862523,0,0.020822509
302,-33,0.9,1,7.647058824,3196,-8852,642,45,-1182,3049,-3186.326982,-7227.37269,-180,-1072.6875,560.2077244,2514.5,62.52,68.97086402,59.64,66.34398242,0,-0.060273461,0,0.024315206
302,-33,0.9,1,8.235294118,2747.794591,-8607.101931,515.8448884,85.53009009,-1491.065592,2687.137355,-3452,-7260,-1080,-1074,528,2621,62.52,68.91265067,59.64,66.37776126,0,-0.058213347,0,0.033778841
302,-33,0.9,1,8.823529412,2356,-8372,294,139,-1751,2384,-4028,-7292,-976,-909,500,2587,62.51951906,68.88,59.64,66.42646985,-0.000480936,-0.032650669,0,0.048708583
302,-33,0.9,1,9.411764706,2044,-8158,86,219,-1956,2180,-3935,-7179,-224.1089259,-922,511.4910714,2612.5,62.47986004,68.88,59.64,66.53482801,-0.039659023,0,0,0.108358159
302,-33,0.9,1,10,1756.407736,-8115.05045,86.50202429,315.1014235,-2215.640048,1981.160002,-3842,-7066,444,-935,533,2638,62.43179739,68.88,59.64,66.57,-0.048062649,0,0,0.035171993
302,-33,0.9,1,10.58823529,1446,-8100,88,372,-2422,1776,-4382,-7076.546002,-31,-928.502809,556.1057028,2610.406997,62.39171989,68.88,59.64,66.57,-0.040077506,0,0,0
302,-33,0.9,1,11.17647059,1045.541273,-8536.349734,334.4979757,363.1810345,-2521.501639,1567.436513,-4922,-7108,-506,-917,584,2553,62.39,68.88,59.64,66.59290551,-0.001719885,0,0,0.022905515
302,-33,0.9,1,11.76470588,592,-9134,580,339,-2566,1313,-4796,-7310,-286,-906,618,2465,62.39,68.87910156,59.63932617,66.64449861,0,-0.000898437,-0.000673828,0.0515931
302,-33,0.9,1,12.35294118,106,-9382,384,240,-2521,896,-4636.891793,-7975.494079,-21.60266041,-939.0921907,729.50402,2419.584125,62.39,68.81855469,59.59391602,66.69125862,0,-0.060546875,-0.045410156,0.046760009
302,-33,0.9,1,12.94117647,-14,-9474,180,165,-2449,636,-4442.455038,-9123.064281,271.6655267,-1018.995842,911.7535733,2382.741445,62.37539589,68.8,59.58,66.76715245,-0.014604112,-0.018554688,-0.013916016,0.075893826
302,-33,0.9,1,13.52941176,-240.54427,-9289.120732,52.58618149,48.72895291,-2299.346836,427.1645733,-4157.790764,-10370.10234,520.1009505,-1116.651572,1081.87634,2358.028042,62.32267861,68.8,59.58,66.86558162,-0.052717281,0,0,0.09842917
302,-33,0.9,1,14.11764706,-528.2647387,-8909.130353,-49.4144538,-85.73418457,-2084.209454,245.8208958,-3728,-11334,650,-1203,1157,2349,62.32,68.72705068,59.58,66.87,-0.002678608,-0.072949318,0,0.00441838
302,-33,0.9,1,14.70588235,-746,-8596,-178,-180,-1861,111,-2308,-11910,680,-1272,973,2545,62.31932617,68.64,59.58,66.87134797,-0.000673828,-0.087050682,0,0.001347968
302,-33,0.9,1,15.29411765,-850.1462879,-8399.905843,-442.8026749,-231.1760042,-1636.762176,27.90656948,-3765.261417,-9757.783901,-172,-1164.93469,831.741624,2848.119763,62.27391602,68.64,59.58,66.97163366,-0.045410156,0,0,0.100285696
302,-33,0.9,1,15.88235294,-948,-8300,-628,-255,-1421,-45,-5378,-7068,-1024,-1001,760,3043,62.26,68.64,59.58,67.04435679,-0.013916016,0,0,0.072723122
302,-33,0.9,1,16.47058824,-1148.609259,-8430.41785,-468.592952,-242.8571429,-1232.831765,-136.3832536,-5628.738583,-6108.216099,-969.0533927,-879.1074453,872.0089852,2883.263859,62.26,68.64,59.58,67.08167506,0,0,0,0.037318274
302,-33,0.9,1,17.05882353,-1286,-8642,-200,-223,-1083,-231,-5724,-5686,-836,-805,1028,2678,62.22808467,68.60352534,59.58,67.1272887,-0.031915327,-0.036474659,0,0.045613635
302,-33,0.9,1,17.64705882,-1220,-8798,22,-208,-992,-321,-4808,-6374,-504,-794,1097,2613,62.19,68.56,59.58067383,67.1745044,-0.038084673,-0.043525341,0.000673828,0.047215704
302,-33,0.9,1,18.23529412,-1223,-8743.83559,328.345144,-223.1937046,-938.420354,-418.1102398,-4840.876404,-6783.219191,-610.7360406,-844.5063291,1079.293617,2656.5,62.19,68.56,59.62608398,67.21792166,0,0,0.045410156,0.043417257
302,-33,0.9,1,18.82352941,-1226,-8634,554,-258,-883,-525,-4896,-6974,-762,-934,1040,2700,62.17748219,68.57165584,59.64,67.26294849,-0.01251781,0.011655843,0.013916016,0.045026837
302,-33,0.9,1,19.41176471,-1142,-8478,604,-330,-780,-652,-4928.698836,-6304.894943,-824.4013396,-1031.738196,940.206383,2685.5,62.13229595,68.62938688,59.64,67.31032793,-0.045186241,0.057731036,0,0.047379439
302,-33,0.9,1,20,-1183.351598,-8251.079406,483,-386.7989444,-644.658661,-780.5791466,-4986,-5172,-898,-1110,862,2671,62.13,68.67696983,59.64,67.36969994,-0.00229595,0.047582951,0,0.059372006
302,-33,0.9,2,20.58823529,-1270,-8108,362,-422,-485,-918,-5684,-4222,-1126,-1137,875,2683,62.12759945,68.73554533,59.64,67.4,-0.002400549,0.058575497,0,0.030300061
302,-33,0.9,2,21.17647059,-1419.166647,-8198,385.2307692,-434.087156,-294.9964263,-1085.503243,-6250.648118,-3979.363931,-975,-1116.5,910.790985,2620.211234,62.07814815,68.84700526,59.64,67.4,-0.049451303,0.111459932,0,0
302,-33,0.9,2,21.76470588,-1580,-8288,426,-439,-97,-1248,-6544,-3890,-824,-1096,961,2518,62.06,68.8725,59.64257813,67.40368037,-0.018148148,0.025494742,0.002578125,0.003680373
302,-33,0.9,2,22.35294118,-1674,-8230,464,-418,79,-1369,-6235.478566,-4669.525785,-893,-1175.289809,1026.419689,2422.788766,62.06,68.81364583,59.6644043,67.43923684,0,-0.058854167,0.021826172,0.035556468
302,-33,0.9,2,22.94117647,3998,-20499,2597.784789,123.7375019,1928.140292,-2242.810951,-5656,-5770,-962,-1289,1068,2367,62.03,68.70666667,59.690625,67.49812312,-0.03,-0.106979167,0.026220703,0.058886278
302,-33,0.9,2,23.52941176,9670,-32768,5596,656,3634,-3236,-4998,-6282,-956,-1345,1013,2421,62,68.64,59.7,67.564259,-0.03,-0.066666667,0.009375,0.066135877
302,-33,0.9,2,24.11764706,5854.083961,-18431.1293,7427.114995,669.4258242,3637.291054,-3505.271135,-5038.729365,-7364.936876,-1120,-1433.649699,982.7894661,2559.100423,62,68.64,59.7,67.65940796,0,0,0,0.095148965
302,-33,0.9,2,24.70588235,118,-2148,8360,674,3641,-3805,-5144,-8184,-1284,-1531,950,2686,62,68.61331048,59.71391602,67.72675982,0,-0.026689519,0.013916016,0.067351861
302,-33,0.9,2,25.29411765,-3202,290,524,-1423,4287,-5040,-5610.386307,-8275.102665,-1090.370401,-1622.012132,849.884375,2730.224848,62,68.49032221,59.75932617,67.77388011,0,-0.122988269,0.045410156,0.047120292
302,-33,0.9,2,25.88235294,-3088.875,1588.200919,-2787.690701,-1417.083289,3730.813717,-4753.59375,-6258,-8308,-788,-1689,773,2749,62,68.37361657,59.76,67.8605334,0,-0.116705644,0.000673828,0.086653287
302,-33,0.9,2,26.47058824,-2840,2650.789705,-5338.225067,-1402.972103,2420.836579,-4123.5,-6813.498065,-7882.814815,-543.0452137,-1723.762239,799.6446303,2684.535051,61.99732139,68.32,59.76,67.94161196,-0.002678608,-0.053616568,0,0.081078558
302,-33,0.9,2,27.05882353,-2591.125,3368.48364,-6978.1469,-1386.124866,894.9411519,-3493.40625,-7330.193477,-7093.185185,-315.9670513,-1749.158897,866.5114829,2538.736769,61.94460411,68.32,59.76,67.98759836,-0.052717281,0,0,0.045986397
302,-33,0.9,2,27.64705882,-2478,3632,-7558,-1372,-309,-3207,-7558,-6668,-216,-1759,954,2383,61.93,68.30376465,59.76,68.0348066,-0.014604112,-0.016235352,0,0.047208245
302,-33,0.9,2,28.23529412,-10268,-11044,3638,-1362,-1050,-3905,-7330,-7042,-386,-1724,1098,2233,61.93,68.25078613,59.76,68.08512307,0,-0.052978516,0,0.050316471
302,-33,0.9,2,28.82352941,-8253.104,-10843.62325,3563.12,-1095.196678,-983.3845128,-3809.167828,-7560,-7536,-672,-1627,1102,1997,61.93,68.25,59.76,68.14319172,0,-0.000786133,0,0.058068644
302,-33,0.9,2,29.41176471,-3448.352,-10334.38974,3384.56,-482.3362632,-823.0335385,-3557.063485,-7958,-6896,-822,-1536,984,1757,61.92770405,68.24693873,59.76,68.17,-0.00229595,-0.003061266,0,0.026808284
302,-33,0.9,2,30,2286.352,-9654.144612,3171.44,243.7224912,-628.1903078,-3201.775227,-7843.950568,-5614.057477,-1621.092334,-1478.616405,1060.5,1336.939922,61.88251781,68.18669041,59.76,68.17,-0.045186241,-0.060248321,0,0
302,-33,0.9,2,30.58823529,7091.104,-8940.732989,2992.88,850.1208304,-458.0980514,-2796.391313,-7600,-4632,-2304,-1411,1137,943,61.87,68.17,59.76,68.18369863,-0.01251781,-0.016690413,0,0.01369863
302,-33,0.9,2,31.17647059,9106,-8332,2918,1104,-372,-2394,-7067.124916,-4509.641708,-2298.146341,-1196.307289,1087.125392,744.3221795,61.87,68.17,59.76,68.24512842,0,0,0,0.061429795
302,-33,0.9,2,31.76470588,4966,-7840,6002,729,-356,-1932,-6349.673569,-4450.031985,-2281.626016,-879.2573399,979.9174504,596.7258499,61.83191533,68.12647466,59.76,68.28695845,-0.038084673,-0.043525341,0,0.041830022
302,-33,0.9,2,32.35294118,2994,-8354,5658,-71,-176,-1726,-5990,-4334,-2256,-662,879,449,61.8,68.09,59.76,68.32932899,-0.031915327,-0.036474659,0,0.042370542
302,-33,0.9,2,32.94117647,3128.296296,-8290.411679,3621.811328,-36.09838066,-94.74794321,-1457.423158,-6538,-3864,-2180,-592,808,284,61.8,68.09,59.76,68.38028995,0,0,0,0.05096096
302,-33,0.9,2,33.52941176,3377.703704,-8154.378914,398.7945526,40.58101646,-39.04631548,-1157.617505,-6600.090113,-3459.647857,-2348,-539.1618108,822.5,-50.39756728,61.8,68.09,59.76,68.4270225,0,0,0,0.046732547
302,-33,0.9,2,34.11764706,3512,-8028,-1282,117,8,-893,-6620,-3016,-2516,-474,837,-512,61.8,68.09,59.76,68.4707421,0,0,0,0.043719607
302,-33,0.9,2,34.70588235,3138,-7942,1600,179,50,-695,-5028,-2188.257143,-2398,-313.5468099,811.5,-1227.85998,61.8,68.1203476,59.76,68.52942263,0,0.030347605,0,0.05868053
302,-33,0.9,2,35.29411765,3467,-8076,2259.000581,15.5,5.408163265,-485.2878259,-3436,-1624,-2280,-107,786,-1705,61.79986933,68.17961224,59.76202942,68.56,-0.000130666,0.059264634,0.002029421,0.030577367
302,-33,0.9,2,35.88235294,3796,-8210,2496,-148,-42,-273,-8966,-3527,-2886,55.17259699,1055,-1265,61.79555602,68.2266342,59.80498119,68.56,-0.004313318,0.047021964,0.042951766,0
302,-33,0.9,2,36.47058824,3691.428571,-7987,1170,-144.712,-46.40816327,-42.22889856,-14496,-5430,-3492,252,1324,-825,61.78593715,68.27242967,59.8351531,68.56375393,-0.009618865,0.045795462,0.030171908,0.003753934
302,-33,0.9,2,37.05882353,3460,-7764,-156,-136,-48,140,-7399,-289,-2911,730.6968934,1109.397104,-2304.5,61.77209605,68.31768801,59.85860456,68.58348808,-0.013841097,0.045258343,0.023451467,0.019734143
302,-33,0.9,2,37.64705882,2878.571429,-7821.352941,221.6051188,-80.29187597,-3.5,226.6945462,-302,4852,-2330,1084,523,-3784,61.75511604,68.36309862,59.87520845,68.61355587,-0.016980013,0.045410608,0.016603891,0.030067795
302,-33,0.9,2,38.23529412,2424,-7894,694,-23,41,293,-2044,2974,-5128,410,-1840,-2654,61.73466987,68.40898538,59.88,68.64712724,-0.020446172,0.045886764,0.004791547,0.033571363
302,-33,0.9,2,38.82352941,2629,-7921.647059,854.0634364,-11.49612403,28.28956835,357.8762372,-1345,620.3424432,-4320.681458,952.599455,-1807,-2575.092622,61.69049502,68.45214521,59.88,68.69460854,-0.044174847,0.043159833,0,0.047481305
302,-33,0.9,2,39.41176471,2834,-7934,938,-7,4,425,-646,-1612,-2738,1606,-1774,-2551,61.68,68.52498104,59.88,68.75001653,-0.010495023,0.072835821,0,0.055407989
302,-33,0.9,2,40,2814,-7754,962,-14,-25,510,-1308.39503,-3343.714939,-142.3185425,1764.232937,-1816.5,-3038.529522,61.68,68.63259978,59.88,68.79938574,0,0.107618743,0,0.049369211
302,-33,0.9,2,40.58823529,2366.211612,-7845,1010.355482,-19.07280558,-29.49427481,542.6675824,-2226,-4574,1678,1878,-1859,-3741,61.70190834,68.70159844,59.9155957,68.8,0.02190834,0.068998664,0.035595703,0.00061426
302,-33,0.9,2,41.17647059,1894,-7936,1044,-24,-31,556,-2645.396394,-5318.196693,1339.103448,2003.14204,-1687.060769,-4112.517644,61.75353201,68.76130858,59.94,68.8,0.051623675,0.059710137,0.024404297,0
302,-33,0.9,2,41.76470588,1849.165622,-7924,1010,-31.19082126,-23,521.0699482,-2980,-5664,742,2137,-1378,-4414,61.79513816,68.79641641,59.94,68.8,0.041606144,0.035107831,0,0
302,-33,0.9,2,42.35294118,1802,-7912,976,-37,-15,459,-3307.407561,-5147.621533,127.1490567,2315.0019,-1066.142475,-4686.897258,61.8,68.69691833,59.95714635,68.8,0.004861842,-0.099498076,0.017146346,0
302,-33,0.9,2,42.94117647,1468,-7918,1016,-39,-48,399,-3602,-4334,-410,2494,-740,-4923,61.8,68.41124748,59.99940159,68.8,0,-0.285670859,0.042255241,0
302,-33,0.9,2,43.52941176,1020.62894,-7918,870.5110803,-33.17975207,-42.5,262.0844321,-3854,-3786,-688,2630,-449,-5116,61.8,68.3484365,60,68.8,0,-0.06281098,0.000598412,0
302,-33,0.9,2,44.11764706,746,-7918,682,-21,-37,101,-3638.82292,-3844.180345,-748.5066991,2801.692705,-87.64360984,-5371.386178,61.8,68.30700298,60,68.8,0,-0.041433521,0,0
302,-33,0.9,2,44.70588235,846,-7942,620,-2,-38,-17,-3186.312508,-4000.138468,-784.2533496,2984.073951,295.0061467,-5657.230989,61.8,68.26712304,60,68.8,0,-0.039879938,0,0
302,-33,0.9,2,45.29411765,915.7272727,-8017.394432,967,2.409340659,-77.941067,-136.649298,-2786,-4226,-796,3115,578,-5904,61.8,68.22071775,60,68.8,0,-0.046405282,0,0
302,-33,0.9,2,45.88235294,950,-8076,1314,4,-117,-278,-2546,-4740,-778,3178,725,-6080,61.8,68.17,60,68.8,0,-0.050717754,0,0
302,-33,0.9,2,46.47058824,739,-7980.811644,1242,-36.53468208,-69.5,-506.3240225,-1911.755445,-5224.352578,-908.7133205,3229.17935,677.8187373,-6253.56467,61.77374524,68.11405446,60,68.8,-0.026254764,-0.055945536,0,0
302,-33,0.9,2,47.05882353,528,-7858,1170,-98,-22,-739,-1436,-5710,-1160,3273,563,-6367,61.73201122,68.09,60,68.7965625,-0.041734014,-0.024054464,0,-0.0034375
302,-33,0.9,2,47.64705882,1027.12783,-7807.188356,1243,-132.4057094,-27.53719008,-907.3489351,-1433.003591,-6230.753129,-1540.357898,3318.075758,237.7196696,-6399.911411,61.68672488,68.09,60,68.7325,-0.045286338,0,0,-0.0640625
302,-33,0.9,2,48.23529412,1748,-7784,1316,-169,-42,-1022,-1432,-6756,-1814,3343,-257,-6413,61.68,68.12743308,60.01386917,68.72,-0.006724885,0.037433078,0.013869173,-0.0125
302,-33,0.9,3,48.82352941,2112,-7806,1146,-230,-90,-1070,-1864,-7260,-1830,3265,-799,-6335,61.68,68.25,60.06,68.72,0,0.122566922,0.046130827,0
302,-33,0.9,3,49.41176471,1812,-7779.028846,1067.851119,-271.0576923,-108.463035,-1138.614094,-2309.610489,-7769.066275,-1546.683544,3190.474616,-1295.504938,-6245.419048,61.68,68.3451348,60.10402609,68.66952168,0,0.095134798,0.044026091,-0.050478323
302,-33,0.9,3,50,1512,-7740,996,-291,-116,-1229,-2764,-8242,-1086,3108,-1646,-6157,61.67354004,68.41707985,60.11560929,68.64,-0.006459961,0.071945056,0.011583199,-0.029521677
302,-33,0.9,3,50.58823529,1581.176471,-7723.539004,837.9569378,-287.5,-100,-1368.716482,-3312.394653,-8672.741367,-711.0515566,2994.798973,-1816.008013,-6082.197531,61.61645996,68.46292049,60.07050484,68.64,-0.057080078,0.045840635,-0.04510445,0
302,-33,0.9,3,51.17647059,1680,-7702,728,-284,-84,-1512,-3694,-8994,-408,2873,-1891,-6011,61.61,68.5504118,60.04234465,68.62023466,-0.006459961,0.087491312,-0.028160185,-0.019765343
302,-33,0.9,3,51.76470588,1728,-7606,940,-299,-104,-1604,-3801.391897,-9159.840056,-209.9641185,2768.738262,-1835.940048,-5943.352965,61.61,68.63890736,60.01933946,68.54437859,0,0.088495556,-0.02300519,-0.075856072
302,-33,0.9,3,52.35294118,1672,-7644,1128.970121,-327.5,-132.3076923,-1722.788867,-3871.140393,-9278.852783,-54.33295057,2668.68705,-1701.324541,-5875.705929,61.61,68.60361328,60.00371181,68.45165152,0,-0.035294076,-0.015627657,-0.092727065
302,-33,0.9,3,52.94117647,1616,-7682,1230,-347,-150,-1841,-3896,-9404,34,2558,-1533,-5792,61.61,68.54493143,60,68.38416604,0,-0.05868185,-0.003711808,-0.067485481
302,-33,0.9,3,53.52941176,1874.619207,-7671.72973,913,-342.173913,-149.5,-1940.33763,-3873.139241,-9558.000213,61.97403691,2424.80618,-1302.136471,-5654.454537,61.61,68.49470287,60,68.33736729,0,-0.050228562,0,-0.046798751
302,-33,0.9,3,54.11764706,2326,-7642,596,-335,-149,-2017,-3812,-9714,92,2279,-993,-5519,61.61,68.43873099,60.04428252,68.2596366,0,-0.055971877,0.044282516,-0.077730689
302,-33,0.9,3,54.70588235,2740,-7482,772,-331,-167,-2060,-3588,-9860,216,2127,-601,-5445,61.61,68.4,60.12,68.17,0,-0.038730992,0.075717484,-0.0896366
302,-33,0.9,3,55.29411765,3243.51193,-7409.2,747.8458647,-338.244898,-172.5636716,-2041.52934,-3252.604648,-10107.81307,295.4929782,1962.422078,-304.0256171,-5342.261204,61.61,68.4,60.12,68.12051284,0,0,0,-0.049487164
302,-33,0.9,3,55.88235294,3638,-7378,722,-351,-179,-2002,-2822,-10414,348,1807,-53,-5210,61.61,68.4,60.12,68.07657186,0,0,0,-0.043940973
302,-33,0.9,3,56.47058824,3786,-7402,720,-363,-217,-1936,-2220.236158,-10820.40049,380.8,1663.65004,194.5298004,-5025.37884,61.61,68.4,60.12,68.03252281,0,0,0,-0.044049057
302,-33,0.9,3,57.05882353,3373.470238,-7374.523364,970,-408.0963055,-250.6376957,-1917.814701,-1638,-11076,396,1567,365,-4813,61.61,68.4,60.12,67.96141189,0,0,0,-0.071110913
302,-33,0.9,3,57.64705882,2956,-7322,1220,-468,-269,-1911,-1290,-10984,312,1538,421,-4606,61.61,68.4,60.12,67.86,0,0,0,-0.101411892
302,-33,0.9,3,58.23529412,2948.529762,-7242.476636,1044.509514,-523.9689119,-269.4746063,-1986.289094,-798.7599646,-10522.32615,219.1016949,1509.796822,394.6296642,-4284.011547,61.61,68.4,60.08750971,67.75900267,0,0,-0.032490288,-0.100997334
302,-33,0.9,3,58.82352941,2946,-7188,806,-556,-270,-2090,-492,-9972,144,1478,340,-3893,61.61,68.407816,60.04308938,67.66146932,0,0.007815998,-0.044420334,-0.097533342
302,-33,0.9,3,59.41176471,3356,-7338,710,-541,-286,-2134,-550.3693558,-9684.405003,97.89830508,1438.738165,232.3703358,-3461.187163,61.61,68.46383065,60.00336017,67.57076381,0,0.056014655,-0.039729206,-0.090705517
302,-33,0.9,3,60,3848.45,-7341.106557,496.5704388,-516.78125,-297.1611953,-2092.506369,-686,-9500,76,1384,153,-3020,61.61,68.52092001,60,67.51329621,0,0.057089355,-0.003360172,-0.057467596
302,-33,0.9,3,60.58823529,4140,-7342,344,-501,-309,-2033,-980,-9418,470,1280,281,-2627,61.61,68.56,60,67.47,0,0.039079992,0,-0.043296211
302,-33,0.9,3,61.17647059,4039,-7261.777372,551,-510.3813559,-329.7330926,-2002.556131,-966,-9424,850,1161,439,-2382,61.61,68.56,60,67.42919989,0,0,0,-0.040800109
302,-33,0.9,3,61.76470588,3938,-7138,758,-528,-352,-1977,-1240,-9646,896,923,683,-1935,61.61,68.5677123,60,67.37348636,0,0.007712296,0,-0.055713534
302,-33,0.9,3,62.35294118,4164,-7060,458,-548,-368,-1952,-1223.992191,-9730.052268,728.1818182,775.8419508,838.1255061,-1457.45623,61.61,68.62353749,60,67.283399,0,0.055825198,0,-0.090087356
302,-33,0.9,3,62.94117647,3931,-7050.621547,747,-577.0492444,-398.8247423,-1956.619863,-1177.76216,-9785.803912,404.3636364,659.3005621,958.562753,-973.0652178,61.61,68.68328099,60,67.17816852,0,0.059743493,0,-0.105230486
302,-33,0.9,3,63.52941176,3698,-7040,1036,-610,-420,-1971,-1104,-9806,194,522,1007,-542,61.61,68.72,59.99965042,67.08129414,0,0.036719013,-0.00034958,-0.096874372
302,-33,0.9,3,64.11764706,4084,-6600,668,-642,-373,-2096,-769.5343841,-9263.965087,156.7173295,320.9924672,933.7692308,-175.5255171,61.61,68.72,59.96940184,66.9988977,0,0,-0.030248577,-0.082396447
302,-33,0.9,3,64.70588235,4454.113323,-6643.270188,427.2242903,-618.4074074,-387.7777778,-2031.185185,-250,-8578,116,108,783,126,61.61645996,68.72,59.92746493,66.91294699,0.006459961,0,-0.041936913,-0.085950705
302,-33,0.9,3,65.29411765,4789.723328,-6773.207043,238.3899229,-574.5925926,-415.2222222,-1910.814815,266.9837823,-8352.167478,-275.1319689,-84.29711366,565.2865385,347.485068,61.67354004,68.72,59.8839222,66.81837238,0.057080078,0,-0.043542734,-0.094574609
302,-33,0.9,3,65.88235294,4936,-6990,162,-551,-430,-1846,732,-8202,-638,-239,279,537,61.68,68.75253906,59.88,66.71812121,0.006459961,0.032539062,-0.003922195,-0.100251175
302,-33,0.9,3,66.47058824,3470,-7906,414,-664,-425,-1853,1020,-8090,-646,-328,-56,717,61.68,68.8,59.87940159,66.63453118,0,0.047460938,-0.000598412,-0.083590025
302,-33,0.9,3,67.05882353,3664,-7970,680,-532,-382,-1841,962.0071736,-7796.666667,-459.6337209,-398.2349185,-310.0357039,824.9675328,61.68,68.8,59.83714635,66.59656374,0,0,-0.042255241,-0.037967442
302,-33,0.9,3,67.64705882,4143.153492,-7625.703704,712.7815731,-532.6100218,-414.1398544,-1829.084083,854,-7578,-166,-457,-492,906,61.68,68.8,59.82,66.53779372,0,0,-0.017146346,-0.058770025
302,-33,0.9,3,68.23529412,4764.021191,-6986.296296,727.0759137,-534.3311547,-490.501931,-1816.48532,720.7981286,-7634.518519,52.87730841,-513.0611099,-614.5208885,973.7327972,61.68,68.8,59.82,66.43367536,0,0,0,-0.104118359
302,-33,0.9,3,68.82352941,5072,-6642,754,-537,-581,-1800,567.1709424,-7739.481481,256.2869166,-563.2074425,-709.7048887,1031.794109,61.68,68.83336077,59.79497942,66.38578777,0,0.033360768,-0.025020576,-0.047887588
302,-33,0.9,3,69.41176471,5014.69577,-7573.259259,919.6050157,-547.314578,-719.9795505,-1764.890443,462,-7796,408,-590,-748,1086,61.68,68.88,59.76,66.35,0,0.046639232,-0.034979424,-0.035787769
302,-33,0.9,3,70,4863.169319,-9302.740741,1181.469175,-569.5703325,-886.3786641,-1720.111888,424.2581194,-7717.376,520.4471366,-597.8256677,-740.9951691,1143.638186,61.68,68.88,59.76,66.30008254,0,0,0,-0.04991746
302,-33,0.9,3,70.58823529,4648,-10234,1318,-600,-967,-1698,384,-7614,576,-601,-723,1186,61.689375,68.88,59.76,66.2485625,0.009375,0,0,-0.05152004
302,-33,0.9,3,71.17647059,4009.800592,-9627.479434,673.9622676,-676.3152174,-946.8876147,-1771.500494,236.4605911,-7567.624,555,-597.84375,-655.6162053,1201.985374,61.73742188,68.88,59.76,66.20198698,0.048046875,0,0,-0.046575521
302,-33,0.9,3,71.76470588,3490,-8640,-232,-736,-893,-1925,56,-7546,534,-593,-541,1217,61.74,68.90709546,59.76,66.2,0.002578125,0.027095461,0,-0.001986979
302,-33,0.9,3,72.35294118,3898,-7904,-648,-536,-694,-2163,-54,-7852,692,-590,-391,1249,61.74,68.96496642,59.76,66.19920212,0,0.057870955,0,-0.000797883
302,-33,0.9,3,72.94117647,4949.3651,-6883.189248,-229,-503.838843,-729.7923077,-2182.845133,-173.0602806,-7979.016129,662,-563.2271672,-264.5185614,1290.51205,61.74,69.0235864,59.76,66.1428618,0,0.058619988,0,-0.056340322
302,-33,0.9,3,73.52941176,5730,-6128,190,-493,-793,-2189,-266,-8032,632,-534,-150,1337,61.74,69.04,59.76,66.12,0,0.016413597,0,-0.022861795
302,-33,0.9,3,74.11764706,5670,-5958,88,-497,-853,-2145,-312.1120653,-7942.040785,651,-525.5294118,-38.91127232,1386.539442,61.74,69.04,59.76,66.12,0,0,0,0
302,-33,0.9,3,74.70588235,5465.912873,-5898.597594,70.11538462,-516.9670578,-970.7135593,-2155.793651,-342,-7798,670,-522,57,1435,61.74,69.04,59.76,66.12,0,0,0,0
302,-33,0.9,3,75.29411765,5228,-5860,64,-546,-1052,-2179,-360,-7696,622,-536,126,1476,61.74,69.04,59.76,66.12,0,0,0,0
302,-33,0.9,4,75.88235294,5067.904971,-5831.740503,70,-566.8020223,-1047.5,-2218.102272,-266,-7491.598654,531.0249645,-533.8454323,222.2356562,1519.958024,61.74,69.04,59.76,66.12,0,0,0,0
302,-33,0.9,4,76.47058824,4986,-5794,76,-595,-1043,-2271,-172,-7206,396,-527,330,1545,61.74,69.04,59.76,66.12,0,0,0,0
302,-33,0.9,4,77.05882353,5650,-5642,-508,-671,-1048,-2330,-334,-6840,184,-456,435,1530,61.74,69.04,59.76,66.12,0,0,0,0
302,-33,0.9,4,77.64705882,5517,-5914.455859,-463.4355828,-694.0491819,-1082,-2336.899254,4465,-8939,1217.667611,148.5799067,-902.8382955,2675.5,61.74,69.04927178,59.76,66.11188719,0,0.009271781,0,-0.008112809
302,-33,0.9,4,78.23529412,5384,-6462,-380,-713,-1112,-2343,9264,-11038,3684,695,-3137,3821,61.74,69.08181763,59.76,66.08340958,0,0.032545844,0,-0.028477614
302,-33,0.9,4,78.82352941,5634.343586,-7323.204738,-305.6454698,-746.2393899,-1090.823944,-2387.814433,-1118,-7182,9530,672,-4935,3117,61.74,69.1130278,59.76,66.05610068,0,0.031210173,0,-0.027308902
302,-33,0.9,4,79.41176471,6042,-8134,-182,-788,-1050,-2427,-2804.61101,-7518.397181,8317.115436,231.1000848,-3467.193979,2778.337171,61.749375,69.12,59.76,66.0609375,0.009375,0.006972201,0,0.004836824
302,-33,0.9,4,80,6346,-8462,288,-839,-1000,-2425,-3759.194394,-8649.905472,5675.341983,-547.6166243,-616.4990693,2538.224141,61.79742188,69.12,59.76,66.11699219,0.048046875,0,0,0.056054688
302,-33,0.9,4,80.58823529,6320,-9063.064718,384.3017391,-891.7287696,-975.0172414,-2432,-4060,-10760,3100,-963,1288,2447,61.8,69.09603094,59.76,66.12,0.002578125,-0.023969062,0,0.003007813
302,-33,0.9,4,81.17647059,6294,-9470,456,-955,-964,-2439,-1810,-32768,1122,-428,1728,2878,61.80069815,69.03338321,59.76,66.12,0.000698148,-0.062647727,0,0
302,-33,0.9,4,81.76470588,6665,-9274.382609,623.32,-1054.015747,-1088.5,-2252.863636,1301.722634,-22542,1649,-291.3358102,292.5,3644.043867,61.84999593,68.94149331,59.76,66.12,0.049297781,-0.091889899,0,0
302,-33,0.9,4,82.35294118,7036,-8878,738,-1167,-1213,-1984,3232,-12316,2176,-241,-1143,4158,61.87,68.83817514,59.76,66.12,0.020004071,-0.103318175,0,0
302,-33,0.9,4,82.94117647,6312,-8364.791038,376.3843246,-1266.021223,-1212.558296,-1848.335183,1954,-13068,1913.843237,-954.5,-358.5,3407,61.87,68.73496147,59.76,66.12,0,-0.103213666,0,0
302,-33,0.9,4,83.52941176,5588,-7630,-268,-1367,-1211,-1724,676,-13820,1104,-1668,426,2656,61.87,68.66666667,59.76,66.12,0,-0.068294805,0,0
302,-33,0.9,4,84.11764706,5788,-6452,-896,-1480,-1045,-1569,3082,-5590,-5530,-605,-136,3283,61.87205761,68.64,59.75794239,66.12,0.002057613,-0.026666667,-0.002057613,0
302,-33,0.9,4,84.70588235,5822.672589,-5422.744064,-1472.859941,-1472.373692,-768.5024723,-1392.289687,-2122,-6634.118068,-3192.328701,8.670509662,-439.7181018,3236.512463,61.91444444,68.64,59.71555556,66.12,0.042386831,0,-0.042386831,0
302,-33,0.9,4,85.29411765,5839.1679,-4513.820308,-1991.915714,-1453.41405,-428.8739083,-1204.387573,-7326,-7726,274,292,-577,3114,61.93,68.64886252,59.7,66.12,0.015555556,0.008862523,-0.015555556,0
302,-33,0.9,4,85.88235294,5868,-4022,-2264,-1429,-150,-1023,-5972.45338,-7783.056301,2685.328701,171.2251309,-127.5,2376.466597,61.93,68.70913598,59.7,66.12,0,0.060273461,0,0
302,-33,0.9,4,86.47058824,5947.305681,-3865.913793,-2335.385693,-1389.623759,38.10594972,-865.7446059,-4184,-7826,3968,36,322,1598,61.93,68.75768296,59.7,66.12,0,0.048546972,0,0
302,-33,0.9,4,87.05882353,6098,-3802,-2364,-1342,177,-694,-3349.416213,-7942.504826,2788.888889,11.22939694,226.3333333,1424.832326,61.93078613,68.80486814,59.69932617,66.12,0.000786133,0.047185181,-0.000673828,0
302,-33,0.9,4,87.64705882,6658.987281,-4138.819192,-2093.356172,-1299.513531,285.6943878,-456.2872758,-2710.708106,-8088.363524,599.1111111,-4.496412643,48.66666667,1320.4977,61.98376465,68.85483883,59.65391602,66.12,0.052978516,0.049970697,-0.045410156,0
302,-33,0.9,4,88.23529412,7126,-4676,-1564,-1262,340,-176,-2456,-8160,-580,-10,-47,1206,62,68.91037109,59.64,66.12,0.016235352,0.055532259,-0.013916016,0
302,-33,0.9,4,88.82352941,7073.471069,-5138.765882,-728.4038415,-1237.574329,249.8931435,145.8145426,-2740.575938,-8098.877358,821,-5,-45.12359551,1058.850718,62,68.95939453,59.64,66.12,0,0.049023437,0,0
302,-33,0.9,4,89.41176471,6935.608806,-5578.382941,281.3536348,-1217.191393,52.45295369,493.8363864,-3162,-8036,2222,1.78E-15,-39,881,62,68.92,59.64,66.12,0,-0.039394531,0,0
302,-33,0.9,4,90,6742,-5774,772,-1185,-143,801,-3394,-8034,1788,-144,45,615,62,68.88089844,59.64,66.12,0,-0.039101563,0,0
302,-33,0.9,4,90.58823529,6366.095047,-5595.317719,772,-1100.218362,-323.0767865,1030.110764,-2773.347601,-8047,1081.569022,-152.4527755,70.98591549,459.8636224,62,68.94144531,59.64,66.12,0,0.060546875,0,0
302,-33,0.9,4,91.17647059,5754,-5120,772,-966,-454,1255,-2020,-8060,596,-155,81,388,62.01251781,68.96,59.64,66.13669041,0.01251781,0.018554688,0,0.016690413
302,-33,0.9,4,91.76470588,4766,-3418,790,-779,-494,1540,-1842,-7978,566,-130,4,390,62.05770405,68.96,59.64,66.19693873,0.045186241,0,0,0.060248321
302,-33,0.9,4,92.35294118,4162.494802,-528.2619199,155.9813084,-589.4419328,-274.4715302,2327.949021,-2132,-7946.732877,879,-141.5408163,4.511235955,352.5478469,62.06,68.99026764,59.64,66.2,0.00229595,0.03026764,0,0.003061266
302,-33,0.9,4,92.94117647,3606,1384,-906,-382,164,2923,-2422,-7934,1192,-159,6,289,62.06039316,69.05021682,59.64,66.20151287,0.000393156,0.059949179,0,0.001512869
302,-33,0.9,4,93.52941176,2926.064436,86.95101733,-1983.981308,-159.2019375,927.9715302,2656,-2161.303681,-7976,865.326454,-171.9591837,49.98876404,221.9521531,62.07245552,69.11017236,59.64,66.24140703,0.012062361,0.059955538,0,0.039894158
302,-33,0.9,4,94.11764706,2082,-1688,-2634,152,1473,2389,-1738,-8018,430,-179,93,181,62.09615691,69.1676121,59.64,66.30923176,0.023701397,0.057439744,0,0.06782473
302,-33,0.9,4,94.70588235,790,-2422,-1962,840,1223,2489,-1346.696319,-8018,223.673546,-119.051458,55.78846154,240.4241316,62.12442198,69.19894305,59.64,66.40634842,0.028265065,0.031330949,0,0.097116665
302,-33,0.9,4,95.29411765,1531,-3440.2698,-356.8896663,1303.762904,970.7438629,3060.839426,-1118,-8018,126,-29,3,346,62.16550892,69.2,59.67,66.46665947,0.04108694,0.001056951,0.03,0.060311046
302,-33,0.9,4,95.88235294,2272,-4086,1134,1569,755,3773,-1406,-8000,542,23,-22,448,62.19,69.2,59.7,66.48792325,0.024491081,0,0.03,0.021263781
302,-33,0.9,4,96.47058824,1356,-4101.67075,1728.340759,1627.602816,609.9256309,4145.911977,-1596.201939,-8000,859.2455404,21.18965517,8.5,485.7300521,62.19,69.2,59.7,66.44182641,0,0,0,-0.046096839
302,-33,0.9,4,97.05882353,440,-4116,1988,1680,489,4444,-1688,-8000,1020,17,39,517,62.19,69.2,59.69628517,66.40523087,0,0,-0.003714834,-0.036595543
302,-33,0.9,4,97.64705882,1145.938226,-4247.696429,1154.683945,1831.848535,367.1210718,4709.651577,-1657,-7945,981,7.613536317,37.32142857,566.3123605,62.19,69.2,59.67407964,66.37682211,0,0,-0.022205526,-0.028408756
302,-33,0.9,4,98.23529412,1888,-4366,80,2024,266,4958,-1626,-7890,942,-6,35,622,62.19,69.2,59.64886885,66.35608775,0,0,-0.025210786,-0.020734365
302,-33,0.9,4,98.82352941,1930,-3914,-266,2183,201,5214,-1656,-7942,974,-21,34,678,62.19,69.2,59.64,66.35,0,0,-0.008868854,-0.006087748
302,-33,0.9,4,99.41176471,1991.303828,-4069.683367,-597.9623454,2419.482072,110.3837651,5632.814762,-1618,-7905.58871,1164.589391,-56.37727273,44,744.5098414,62.19,69.2,59.64,66.35,0,0,0,0
302,-33,0.9,4,100,2030,-4348,-780,2645,37,6095,-1580,-7856,1330,-107,54,814,62.19,69.2,59.64,66.35,0,0,0,0
302,-33,0.9,1,0,1676,-4594.155663,-553.9,2811.159888,3.716981132,6495.735046,-1660.941011,-7830.41129,1327.729682,-168.92,48,880.7510801,62.19,69.2,59.64,66.35,0,0,0,0
302,-33,0.9,1,0.602409639,1322,-4912,-248,2896,-11,6832,-1820,-7818,1320,-236,42,945,62.23152832,69.2,59.64,66.39152832,0.04152832,0,0,0.04152832
302,-33,0.9,1,1.204819277,1453.564367,-5455.857075,-94.1,2871.428571,44.86267606,7068.4741,-2026,-7830,1114,-296,63,1004,62.26,69.2,59.64,66.42,0.02847168,0,0,0.02847168
302,-33,0.9,1,1.807228916,1728,-6162,-20,2810,179,7264,-2034,-7842,1098,-326,89,1045,62.26,69.2,59.64,66.42,0,0,0,0
302,-33,0.9,1,2.409638554,2152,-6966,-372,2638,504,7438,-1812,-7804,1154,-374,117,1122,62.26,69.18144531,59.64,66.40863381,0,-0.018554687,0,-0.011366192
302,-33,0.9,1,3.012048193,2388.152077,-7549.496517,-625.1078827,2448.599612,851.2951214,7511.943662,-1744.096836,-7805,1167.215613,-427.0579446,119.2202869,1219.41865,62.26,69.12089844,59.64,66.35476999,0,-0.060546875,0,-0.053863817
302,-33,0.9,1,3.614457831,2610,-8010,-818,2258,1172,7543,-1704,-7806,1172,-478,121,1329,62.28387425,69.12,59.64,66.29744054,0.023874249,-0.000898438,0,-0.057329452
302,-33,0.9,1,4.21686747,2948,-8350,-948,2082,1414,7473,-1666.214125,-7785.188605,1155.450438,-523.8985547,134.8125,1442.186904,62.32899684,69.1234375,59.64,66.27,0.045122593,0.0034375,0,-0.027440538
302,-33,0.9,1,4.819277108,3536,-8998,-1042,1873,1689,7254,-1629.651857,-7732.559091,1110.552513,-569.4078151,164.3333333,1559.469994,62.3819959,69.1875,59.64,66.27,0.05299906,0.0640625,0,0
302,-33,0.9,1,5.421686747,4182.321675,-9589.977068,-789.6688034,1722.315183,1728.306077,6979.843164,-1596.831255,-7662.818466,1044.432365,-612.6501854,201.4375,1681.07106,62.39,69.1771382,59.64,66.24999593,0.008004098,-0.010361795,0,-0.020004071
302,-33,0.9,1,6.024096386,4801.494171,-10116.54409,-292.4487178,1595.647576,1750.208594,6670.352902,-1570.270373,-7590.673737,964.2161366,-651.7480701,238,1807.21189,62.39,69.12079788,59.64,66.20069815,0,-0.056340322,0,-0.049297781
302,-33,0.9,1,6.626506024,5078,-10344,60,1476,1757,6355,-1552.487269,-7530.831913,877.0299678,-684.8238735,265.8958333,1938.114274,62.39,69.12,59.60735599,66.23808467,0,-0.000797883,-0.032644006,0.037386526
302,-33,0.9,1,7.228915663,5047.027256,-10256.0272,201.3491585,1337.485651,1624.517828,6043.242001,-1546,-7498,790,-710,277,2074,62.39,69.12,59.58,66.26699219,0,0,-0.027355994,0.028907514
302,-33,0.9,1,7.831325301,4962.906015,-10031.07254,317.0881409,1191.098356,1298.047543,5725.855964,-1630,-7488,684,-726,265,2223,62.39,69.12,59.58,66.2109375,0,0,0,-0.056054687
302,-33,0.9,1,8.43373494,4838.831767,-9727.581606,395.2830528,1075.161884,884.0534854,5404.291944,-1760,-7664,376,-725,293,2394,62.39,69.0971382,59.58,66.21398575,0,-0.022861795,0,0.003048252
302,-33,0.9,1,9.036144578,4688,-9404,424,1028,489,5080,-2053.018175,-7554.421828,711,-740.2315301,318.4049643,2504.16819,62.39,69.04079788,59.58,66.26541122,0,-0.056340322,0,0.05142547
302,-33,0.9,1,9.638554217,4413.826754,-8917.457468,98,1068.99005,104.5038249,4748.452776,-2410,-7390,1046,-774,347,2585,62.39,69.04,59.58,66.32227926,0,-0.000797883,0,0.056868037
302,-33,0.9,1,10.24096386,4034,-8544,-228,1135,-275,4419,-2707.166458,-7288.471151,1026.470315,-848.7790003,392.5568081,2648.510101,62.39,69.04,59.58,66.35,0,0,0,0.027720741
302,-33,0.9,1,10.84337349,3613.672941,-8473.006263,-144.7421603,1194.50995,-603.9554437,4101.83638,-2991.088451,-7200.511622,970.4961854,-958.6198587,447.4958152,2700.776356,62.39,69.04,59.58,66.35,0,0,0,0
302,-33,0.9,1,11.44578313,3176,-8446,8,1229,-888,3795,-3266,-7122,882,-1043,491,2738,62.39,69.04,59.57477085,66.35357776,0,0,-0.005229151,0.003577758
302,-33,0.9,1,12.04819277,2735.045861,-8456.135468,211.7421603,1160.542035,-1105.710744,3507.965155,-3555.958637,-7037.209632,470.8190692,-1093.368898,514.7564686,2765.609021,62.39,69.04,59.55136322,66.37211355,0,0,-0.02340763,0.018535789
302,-33,0.9,1,12.65060241,2406,-8486,346,1035,-1311,3216,-3788,-6990,-62,-1118,538,2779,62.39,69.04,59.52695384,66.39960483,0,0,-0.024409383,0.027491287
302,-33,0.9,1,13.25301205,2278,-8664,254,902,-1549,2887,-3906,-7028,-348,-1089,576,2731,62.38590457,69.04,59.52,66.42977956,-0.004095431,0,-0.006953836,0.030174729
302,-33,0.9,1,13.85542169,2112,-8682,78,793,-1697,2694,-3773,-7104.650943,-1,-1081.709541,568.5,2771.5,62.34002407,69.04,59.52,66.47153046,-0.045880497,0,0,0.041750894
302,-33,0.9,1,14.45783133,1679.62399,-8739.056893,-69.61829249,673.3882647,-1836.60312,2484.372853,-3640,-7158,346,-1075,561,2812,62.3067535,69.04,59.52,66.50420362,-0.033270576,0,0,0.032673159
302,-33,0.9,1,15.06024096,1198,-8816,-220,552,-1930,2250,-4465,-7105,-211,-1048.86137,583.5399824,2752.703737,62.28173676,69.04,59.52,66.5274876,-0.025016731,0,0,0.023283978
302,-33,0.9,1,15.6626506,928,-8882,-408,437,-1956,1962,-5290,-7052,-768,-1025,622,2646,62.26422839,69.04,59.52,66.55027458,-0.017508373,0,0,0.022786986
302,-33,0.9,1,16.26506024,721.3333333,-8816.148148,-454.4913928,368.8661962,-1926.67096,1694.826725,-4806,-7128,-290,-1021,655,2539,62.26,69.03551977,59.52,66.58029131,-0.004228391,-0.004480229,0,0.030016728
302,-33,0.9,1,16.86746988,549.6666667,-8693.851852,-482.5790297,316.4977572,-1852.675253,1433.479892,-4612.077833,-6778,-279.133282,-1063,688.6619611,2570,62.26,68.9825475,59.52,66.62191984,0,-0.052972275,0,0.04162853
302,-33,0.9,1,17.46987952,478,-8628,-492,264,-1755,1144,-4532,-6428,-276,-1105,738,2601,62.23785156,68.93014065,59.52,66.66955051,-0.022148437,-0.052406842,0,0.047630674
302,-33,0.9,1,18.07228916,520,-8850,-314,206,-1590,790,-5259,-7268.876526,-434,-1070.524194,937.9142539,2422.5,62.19,68.88,59.52,66.72,-0.047851563,-0.050140654,0,0.050449486
302,-33,0.9,1,18.6746988,464,-8896,-148,146,-1478,599,-5986,-9036,-592,-1005,1104,2244,62.19,68.82129855,59.55785874,66.76119469,0,-0.058701454,0.037858742,0.041194687
302,-33,0.9,2,19.27710843,335.3031337,-8947.755463,-95.27437261,57.84789444,-1323.945664,384.8352651,-2692,-11828,1738,-928,918,2329,62.18505394,68.8,59.57505394,66.80355483,-0.004946061,-0.021298546,0.017195196,0.042360139
302,-33,0.9,2,19.87951807,147.1080595,-9004.617845,-61.74829742,-45.02637464,-1147.577279,164.2412456,-2886,-9616,1760,-982,744,2559,62.1384022,68.8,59.5284022,66.85135566,-0.04665174,0,-0.04665174,0.047800835
302,-33,0.9,2,20.48192771,-36,-9070,-50,-131,-992,-22,-5376,-8962,-748,-921,827,2802,62.13,68.78150777,59.52,66.89639789,-0.008402198,-0.018492231,-0.008402198,0.045042224
302,-33,0.9,2,21.08433735,-190,-9154,-54,-187,-877,-154,-6182,-10984,-904,-791,933,2690,62.13,68.72,59.52,66.94,0,-0.061507769,0,0.043602114
302,-33,0.9,2,21.68674699,-476.6890799,-8931.547672,3.47706422,-255.8680851,-736.2314992,-278.5288222,-5753.703704,-10273.78969,-793.037037,-829.6296296,926.7777778,2775.555556,62.08583147,68.67269688,59.52,66.98752516,-0.044168532,-0.047303123,0,0.047525157
302,-33,0.9,2,22.28915663,-812,-8602,86,-323,-582,-392,-4958.296296,-8756.023817,-586.962963,-901.3703704,915.2222222,2934.444444,62.06,68.62383065,59.52494606,67.0327358,-0.025831468,-0.048866223,0.004946061,0.045210643
302,-33,0.9,2,22.89156627,-1133.441064,-8417.340865,137.5229358,-386.8234043,-416.5199493,-487.5096304,-4530,-7350,-476,-940,909,3020,62.06,68.567816,59.5715978,67.07278456,0,-0.056014655,0.04665174,0.040048757
302,-33,0.9,2,23.4939759,-1376,-8252,164,-422,-258,-576,-5206,-6429.837035,-668.8486056,-909.7395833,979.2681564,2924,62.06,68.5853125,59.58,67.11695648,0,0.017496502,0.008402198,0.044171922
302,-33,0.9,2,24.09638554,-1474,-8076,10,-403,-131,-664,-5882,-5488,-896,-870,1061,2828,62.06,68.64,59.58,67.17,0,0.0546875,0,0.053043521
302,-33,0.9,2,24.69879518,-1437,-7913.75395,101.8736695,-376.4911444,-24.16895247,-745.3829667,-5531,-3910.232901,-934.8620888,-857.7234517,1080.231844,2832.823529,62.06,68.58952168,59.58,67.27543905,0,-0.050478323,0,0.105439054
302,-33,0.9,2,25.30120482,-1400,-7826,284,-360,77,-836,-5180,-2876,-978,-844,1088,2844,62.05446289,68.56,59.58,67.32,-0.005537109,-0.029521677,0,0.044560946
302,-33,0.9,2,25.90361446,-1409.10187,-7962.888889,584.5949579,-368.8364842,170.8409016,-959.7631469,-5818,-3058,-1240,-796,1074,2868,62.00553711,68.56,59.58,67.32,-0.048925781,0,0,0
302,-33,0.9,2,26.5060241,-1435.092629,-8217.111111,953.7419234,-392.3396352,264.9195469,-1108.25882,-5799.869565,-3436.727294,-982.8148148,-850.0528736,1102.259259,2773.111111,62,68.58952168,59.58,67.36494597,-0.005537109,0.029521677,0,0.044945973
302,-33,0.9,2,27.10843373,-1476,-8354,1134,-426,391,-1264,-5745.73913,-3988.903903,-505.1851852,-974.1057471,1154.740741,2596.888889,62,68.64,59.58,67.47,0,0.050478323,0,0.105054027
302,-33,0.9,2,27.71084337,-1697.927063,-8076,1108,-529.8089552,578.0080076,-1391.056768,-5656,-4584,-248,-1111,1183,2502,62,68.53904335,59.58,67.51913816,0,-0.100956646,0,0.049138164
302,-33,0.9,2,28.31325301,-1896,-7798,1082,-615,901,-1593,-5290,-5214,-748,-1254,1130,2541,62,68.48516622,59.58553711,67.56407893,0,-0.053877129,0.005537109,0.044940768
302,-33,0.9,2,28.91566265,1102,-14744,3167.872957,-278.0214797,1934.465242,-3610.826964,-5381,-6033.547809,-1346.260274,-1376.390122,1031.398584,2587.574701,62,68.54301197,59.63446289,67.61222771,0,0.05784575,0.048925781,0.048148773
302,-33,0.9,2,29.51807229,4100,-21690,6620,293,3438,-5477,-5472,-6834,-1700,-1467,918,2643,61.97416853,68.60126901,59.64,67.68997837,-0.025831468,0.058257033,0.005537109,0.077750668
302,-33,0.9,2,30.12048193,1924,-3662,9324,773,4891,-3976,-5184,-7410,-1010,-1512,826,2716,61.93,68.64,59.64,67.78,-0.044168532,0.038730992,0,0.090021627
302,-33,0.9,2,30.72289157,93.39058613,-5180.991745,4015.303395,-416,3831.682486,-4269.5,-5619.876256,-7181,-619.2741935,-1531.538386,819.1145967,2827.009036,61.93,68.6002306,59.64,67.82906157,0,-0.039769403,0,0.049061574
302,-33,0.9,2,31.3253012,-866,-7652,-1822,-1605,2209,-4563,-6236,-6952,-440,-1546,817,2898,61.93,68.5244061,59.64757202,67.88967982,0,-0.075824501,0.007572016,0.060618242
302,-33,0.9,2,31.92771084,1920,-9949.008255,-2670.303395,-1114.888776,974.5057778,-4212.416998,-6524,-7220,-472,-1561,911,2805,61.93,68.41579151,59.69242798,67.98032018,0,-0.108614583,0.044855967,0.090640369
302,-33,0.9,2,32.53012048,4706,-11294,-2990,-329,266,-3719,-6912.750918,-7870.776113,-505.3259424,-1647.516096,970.614094,2628.840345,61.91101563,68.4,59.7,68.04988948,-0.018984375,-0.015791512,0.007572016,0.069569297
302,-33,0.9,2,33.13253012,116,-8874,554,230,223,-3492,-7152,-8540,-552,-1774,999,2435,61.87,68.4,59.7,68.09,-0.041015625,0,0,0.040110518
302,-33,0.9,2,33.73493976,-13718,-12602,-1424,2302,-2176,-2055,-6368,-8928.253165,-690.0856134,-1902.05036,949.2005884,2272.055921,61.87,68.3453125,59.7,68.09,0,-0.0546875,0,0
302,-33,0.9,2,34.3373494,-10437.22224,-10460,-2350.91204,1659.814815,-1560,-2774.703704,-5584,-9116,-824,-1978,824,2169,61.87,68.32,59.7,68.097816,0,-0.0253125,0,0.007815998
302,-33,0.9,2,34.93975904,-3730.666695,-6482,-2996.037166,467.1851852,-416,-4111.296296,-5974,-8682,-860,-1938,466,2147,61.87,68.32,59.7,68.15383065,0,0,0,0.056014655
302,-33,0.9,2,35.54216867,1698,-4340,-3496,-175,200,-4831,-6944,-7468,-886,-1922,247,1952,61.84416853,68.32,59.7,68.21092001,-0.025831468,0,0,0.057089355
302,-33,0.9,2,36.14457831,4242,-8396,-3882,429,-296,-4485,-6958.658151,-5891.042906,-1150.62867,-1898.713878,169.6070161,1481.348912,61.8,68.32,59.7,68.25,-0.044168532,0,0,0.039079992
302,-33,0.9,2,36.74698795,6698.185313,-7847,-1127.996498,669.0838823,-154.5,-3556.724229,-6965.995742,-4206.741068,-1646.451467,-1864.73159,120.3691646,847.9202584,61.8,68.32,59.7,68.25,0,0,0,0
302,-33,0.9,2,37.34939759,8048,-7298,1926,768,-13,-2609,-6968,-3058,-2054,-1811,86,433,61.8,68.32,59.7,68.2710055,0,0,0,0.021005496
302,-33,0.9,2,37.95180723,7240.666667,-7441.62963,2437.401182,509.2592593,-14.68660969,-2205.642467,-6400,-2471.861502,-2279.055518,-1620.010309,55.15909091,306.1360758,61.8,68.32,59.7,68.38763485,0,0,0,0.116629351
302,-33,0.9,2,38.55421687,5741.333333,-7708.37037,2758.58948,28.74074074,-19.92877493,-1919.254664,-5832,-2156,-2450,-1366,40,205,61.7755957,68.32,59.7,68.4,-0.024404297,0,0,0.012365154
302,-33,0.9,2,39.15662651,4934,-7852,2870,-230,-29,-1576,-6444,-2076,-2574,-1192,91,65,61.74,68.32,59.70059841,68.40053735,-0.035595703,0,0.000598412,0.00053735
302,-33,0.9,2,39.75903614,5234,-7794,258,-211,-77,-1054,-7381.268393,-2502.963138,-2458.228546,-1021.225806,228.1268657,-243.7390084,61.74,68.32,59.74285365,68.44531651,0,0,0.042255241,0.044779157
302,-33,0.9,2,40.36144578,4736,-7934,-230,-122,-56,-751,-7982,-3190,-2186,-851,331,-696,61.74,68.32,59.76,68.50221046,0,0,0.017146346,0.056893955
302,-33,0.9,2,40.96385542,3962,-7944,1664,-97,-23,-419,-6452,-3684,-1572,-679,264,-1308,61.74,68.32,59.76,68.55545695,0,0,0,0.053246489
302,-33,0.9,2,41.56626506,4097,-7970.33871,2649.72682,-318.5,-68,-147.7857437,-3531.145162,-2541.070755,-1604.803691,-417.9734099,223.9318263,-2221.517306,61.74,68.32,59.76,68.56,0,0,0,0.004543049
302,-33,0.9,2,42.1686747,4232,-7990,3090,-540,-113,63,-1522,-1134,-1686,-152,173,-2893,61.74,68.32,59.76059841,68.56052937,0,0,0.000598412,0.000529373
302,-33,0.9,2,42.77108434,4149.920609,-7982.888889,2926.453827,-521.4653589,-110.6254209,226.5695876,-1510.28565,-646.2158019,-2214.816695,28.72336188,-198.3113906,-3037.785462,61.74,68.32,59.80285365,68.60495454,0,0,0.042255241,0.044425172
302,-33,0.9,2,43.37349398,3930.634836,-7965.111111,2514.518912,-473.4891486,-104.2457912,383.5335166,-1505.072796,-259.8584906,-3252.392617,174.0623136,-934.8983945,-3116.06896,61.74,68.32772621,59.82,68.65987894,0,0.007726209,0.017146346,0.054924399
302,-33,0.9,2,43.97590361,3614.571286,-7942,1972.250664,-407.5129382,-94.97727273,523.5751547,-1500.823545,-5.571933962,-4265.772232,328.6201085,-1702.036201,-3184.317977,61.74,68.38681601,59.82,68.71040923,0,0.059089801,0,0.050530284
302,-33,0.9,2,44.57831325,3242.158561,-7918.888889,1417.704491,-334.9782972,-83.93602694,636.3778694,-1492,86,-4722,537,-2165,-3299,61.71497942,68.46382511,59.84502058,68.76499365,-0.025020576,0.077009102,0.025020576,0.054584421
302,-33,0.9,2,45.18072289,2853.825265,-7901.111111,968.9358,-267.3267947,-72.23821549,711.6250286,-1457.760836,-1093.463287,-3166.762077,926.9487636,-2345.325465,-3527.109522,61.68,68.56,59.88,68.8,-0.034979424,0.096174887,0.034979424,0.035006352
302,-33,0.9,2,45.78313253,2490,-7894,744,-216,-61,739,-1430,-2916,-728,1321,-2426,-3854,61.68,68.68262558,59.88,68.7453125,0,0.122625577,0,-0.0546875
302,-33,0.9,2,46.38554217,2102.212239,-7904.888889,676.5181251,-179.9529368,-46.52272727,718.865807,-1432,-4070,890,1524,-2241,-4309,61.68664689,68.71238286,59.889375,68.7325,0.006646892,0.029757283,0.009375,-0.0128125
302,-33,0.9,2,46.98795181,1680.265622,-7925.111111,628.3701736,-148.5840409,-30.46969697,666.5093917,-2214,-5466,1792,1690,-1712,-5002,61.73185199,68.65340667,59.93742188,68.7965625,0.045205096,-0.058976187,0.048046875,0.0640625
302,-33,0.9,2,47.59036145,1322,-7936,610,-119,-22,594,-2511.346985,-5403.324273,1501.367955,1873.691517,-1214.334525,-5404.448855,61.775512,68.56843216,59.94,68.8,0.04366001,-0.084974512,0.002578125,0.0034375
302,-33,0.9,2,48.19277108,1072,-7892,946,-91,-21,452,-2722.133041,-5242.198061,823.3145455,2068.337386,-726.4240294,-5723.281819,61.8,68.47186207,59.94,68.8,0.024488002,-0.096570095,0,0
302,-33,0.9,2,48.79518072,976.4252537,-7939,1130.299901,-103.7741935,-31.23880597,301.9799718,-2868.852576,-5022.972819,48.60386364,2266.564562,-298.5515191,-5976.723875,61.8,68.38299674,59.94,68.8,0,-0.088865331,0,0
302,-33,0.9,2,49.39759036,894,-7986,1214,-127,-49,161,-2974,-4786,-532,2461,19,-6183,61.8,68.30054674,59.94,68.78491084,0,-0.08245,0,-0.015089163
302,-33,0.9,2,50,752,-7940,1096,-151,-65,48,-3061.964876,-4398.90097,-929.2722887,2654.985588,238.2802667,-6342.789266,61.8,68.25312097,59.94,68.72592593,0,-0.047425764,0,-0.058984911
302,-33,0.9,3,50.60240964,1016,-7992,1140,-183,-112,-90,-3104,-4128,-1142,2837,384,-6476,61.8,68.25,59.9644043,68.72,0,-0.003120972,0.024404297,-0.005925926
302,-33,0.9,3,51.20481928,732.8888889,-7989.636708,1134.882155,-226.0657746,-112,-264.7109818,-2744,-4342,-1152,2989,456,-6604,61.79947315,68.24910156,60,68.72,-0.000526854,-0.000898437,0.035595703,0
302,-33,0.9,3,51.80722892,207.1111111,-7981.940083,1119.097643,-272.223603,-112,-474.9578866,-2362,-4830,-1204,3193,429,-6786,61.75984398,68.18855469,60,68.72,-0.039629168,-0.060546875,0,0
302,-33,0.9,3,52.40963855,-76,-7968,1092,-301,-112,-737,-2399.333333,-5419.914273,-1242.054926,3238.297767,345.8524254,-6873.031501,61.72857348,68.17,60,68.72,-0.031270497,-0.018554688,0,0
302,-33,0.9,3,53.01204819,28,-7862,956,-310,-75,-1132,-2468.666667,-6076.367918,-1273.138574,3265.148883,186.1669534,-6934.626862,61.71064791,68.17,60,68.72,-0.017925568,0,0,0
302,-33,0.9,3,53.61445783,658,-7758,846,-309,-42,-1339,-2506,-6756,-1286,3274,-39,-6958,61.69537174,68.17,60,68.70879707,-0.015276173,0,0,-0.011202931
302,-33,0.9,3,54.21686747,1426.582363,-7736.576199,1024,-333.7916667,-82.29605263,-1458.01891,-2388,-7460,-1052,3212,-501,-6786,61.67808088,68.17073738,60,68.67647466,-0.017290858,0.000737379,0,-0.03232241
302,-33,0.9,3,54.81927711,1884,-7720,1202,-379,-140,-1556,-2766.968896,-8074.218982,-1077.357143,3129.29186,-975.5268075,-6612.541351,61.65927179,68.2448824,60,68.64659475,-0.018809089,0.074145021,0,-0.02987991
302,-33,0.9,3,55.42168675,1718,-7687.074405,1128.378676,-429.4011438,-175.7039474,-1654.285267,-3408,-8418,-1122,3026,-1335,-6461,61.6392886,68.39065277,60,68.64,-0.019983191,0.145770366,0,-0.006594749
302,-33,0.9,3,56.02409639,1552,-7646,1024,-477,-194,-1761,-3944,-8442,-1164,2887,-1486,-6357,61.61546159,68.53693863,60,68.64,-0.023827008,0.146285866,0,0
302,-33,0.9,3,56.62650602,1585.32,-7603.386098,961.6213235,-503.3558277,-190.5,-1901.659091,-4411.747839,-8741.235244,-966.9270073,2704.237217,-1540.922316,-6190.851019,61.57440102,68.66145985,60,68.61147228,-0.041060579,0.124521221,0,-0.028527725
302,-33,0.9,3,57.22891566,1664,-7552,930,-532,-187,-2064,-4660,-9214,-632,2511,-1563,-5974,61.55,68.71451303,59.99940159,68.54835116,-0.024401016,0.053053178,-0.000598412,-0.063121117
302,-33,0.9,3,57.8313253,1844,-7478,1132,-594,-216,-2243,-4612,-9604,-348,2340,-1467,-5695,61.55,68.60148148,59.98285365,68.48504571,0,-0.11303155,-0.016547934,-0.063305451
302,-33,0.9,3,58.43373494,2163.307303,-7452.608019,897.7468254,-622.0172414,-228.6569328,-2356.168835,-4594.607376,-9827.224211,-102.132948,2174.693935,-1306.200029,-5463.60933,61.55,68.56,59.95714635,68.41402524,0,-0.041481481,-0.025707307,-0.071020466
302,-33,0.9,3,59.03614458,2602,-7428,506,-634,-237,-2410,-4574,-9930,28,2019,-1112,-5241,61.55,68.56,59.94059841,68.3362721,0,0,-0.016547934,-0.077753139
302,-33,0.9,3,59.63855422,3351.390594,-7339.504808,110.2531746,-590.7647059,-244.9090909,-2381.006909,-4389.242798,-9862.030534,25.96330275,1872.691043,-917.4313569,-4992.36856,61.55,68.52969994,59.94,68.24119027,0,-0.030300061,-0.000598412,-0.095081836
302,-33,0.9,3,60.24096386,3864,-7270,-128,-529,-249,-2325,-4126,-9706,20,1748,-715,-4751,61.55,68.46938688,59.94229595,68.15848227,0,-0.06031306,0.00229595,-0.082707997
302,-33,0.9,3,60.84337349,3836,-7378,184,-499,-247,-2256,-3963.651613,-9249.969466,-195.9633028,1653.03841,-508.8937812,-4539.650828,61.55,68.41165584,59.98748219,68.11616655,0,-0.057731036,0.045186241,-0.042315716
302,-33,0.9,3,61.44578313,3538.392003,-7377.145804,600.8328648,-529.298103,-267.9891375,-2263.308474,-3790,-8882,-408,1580,-299,-4348,61.55,68.4,60,68.04749349,0,-0.011655843,0.01251781,-0.068673065
302,-33,0.9,3,62.04819277,3033.307112,-7374.069386,1032.860877,-594.2628726,-312.5338307,-2283.505838,-3528.810696,-8902.550898,-389.2676801,1531.131473,-77.8346481,-4173.827386,61.55,68.4,60,67.93942483,0,0,0,-0.108068657
302,-33,0.9,3,62.65060241,2766,-7368,1232,-655,-353,-2314,-3196,-8948,-334,1487,128,-4017,61.55,68.42604863,60.03,67.84850283,0,0.026048632,0.03,-0.090922
302,-33,0.9,3,63.25301205,2922,-7162,888,-697,-379,-2395,-2768,-9032,-2,1433,288,-3882,61.55067383,68.486856,60.06,67.77401733,0.000673828,0.060807371,0.03,-0.074485503
302,-33,0.9,3,63.85542169,3828,-7126,56,-696,-372,-2430,-2276.618101,-9098.582714,71.08270565,1361.216434,425.7434884,-3655.749911,61.59608398,68.59379623,60.06,67.72728627,0.045410156,0.106940223,0,-0.046731053
302,-33,0.9,3,64.45783133,4270,-7120,-246,-643,-363,-2384,-1779.718942,-9157.344678,113.1892929,1285.273166,550.9977681,-3363.554473,61.61,68.6743099,60.06,67.65956587,0.013916016,0.08051367,0,-0.067720402
302,-33,0.9,3,65.06024096,4630,-6970,-216,-574,-345,-2283,-1442,-9214,136,1241,660,-3074,61.61,68.71949219,60.06,67.55929494,0,0.045182292,0,-0.100270932
302,-33,0.9,3,65.6626506,4570.025337,-6916.087845,-97.39830227,-551.8225759,-356.9259259,-2185.443366,-1287.692581,-9283.376676,146.1058529,1231.262792,747.6435773,-2809.882709,61.64808467,68.72,60.03526969,67.46402849,0.038084673,0.000507813,-0.024730307,-0.095266454
302,-33,0.9,3,66.26506024,4432.71734,-6881.987278,76.74529331,-538.4618385,-379.0740741,-2096.721683,-1166,-9324,158,1221,830,-2550,61.68,68.72306127,59.99294118,67.38865547,0.031915327,0.003061266,-0.042328516,-0.075373012
302,-33,0.9,3,66.86746988,4282,-6852,166,-524,-391,-2058,-993.5,-9233,297.5864218,1169.240246,932.8575464,-2298.139137,61.68,68.78330959,59.95764706,67.34561085,0,0.060248321,-0.035294118,-0.043044629
302,-33,0.9,3,67.46987952,4093.430808,-6824.969773,163.8069346,-502.6486926,-385.8518519,-2121.300317,-890,-9142,490,1078,1017,-2046,61.68,68.8,59.91868919,67.28285312,0,0.016690413,-0.038957867,-0.062757722
302,-33,0.9,3,68.07228916,3885.826515,-6800.937368,156.7249803,-479.9540418,-375.1481481,-2247.045078,-922,-9212,596,944,1055,-1784,61.68,68.8,59.8815632,67.18862526,0,0,-0.037125992,-0.094227869
302,-33,0.9,3,68.6746988,3788,-6766,144,-463,-366,-2339,-942,-9392,532,802,1094,-1257,61.68,68.84,59.88,67.08985609,0,0.04,-0.0015632,-0.098769162
302,-33,0.9,3,69.27710843,4232,-6690,54,-454,-361,-2370,-990,-9336,260,687,1112,-853,61.68,68.88,59.88,67.00796847,0,0.04,0,-0.08188762
302,-33,0.9,3,69.87951807,4690.865213,-6408.405337,54.44051447,-402.4782609,-371.0015773,-2324.540335,-833.5088291,-9264.631228,150.0474763,472.9340138,1135.054711,-431.5309232,61.68,68.88,59.88,66.96193038,0,0,0,-0.046038089
302,-33,0.9,3,70.48192771,5030,-6182,56,-358,-395,-2243,-592,-9170,78,238,1149,-46,61.68,68.8571382,59.88,66.88883793,0,-0.022861795,0,-0.073092452
302,-33,0.9,3,71.08433735,5158,-7002,288,-420,-453,-2162,-434.7784762,-9020.704196,20.90690208,49.78880905,1142.047249,267.0415486,61.68,68.80079788,59.88,66.79611745,0,-0.056340322,0,-0.092720483
302,-33,0.9,3,71.68674699,4906,-7408.256198,780.5586097,-369,-508.6055958,-2197.184783,-295.8978083,-8814.580228,-21.32344896,-131.4350461,1121.701746,548.5230644,61.68,68.83297374,59.88,66.75331421,0,0.03217586,0,-0.042803237
302,-33,0.9,3,72.28915663,4654,-7790,1324,-318,-586,-2240,-164.4279023,-8578.304162,-60.80725104,-296.2533058,1088.732619,807.6838059,61.68229595,68.89038876,59.88,66.70682917,0.00229595,0.057415021,0,-0.046485042
302,-33,0.9,3,72.89156627,4720.888889,-8593.03406,1762.537078,-340.941209,-875.105618,-2249.934274,-29.43866413,-8338.552064,-109.6607021,-435.2477103,1043.908995,1053.763032,61.72748219,68.94819459,59.88,66.61121082,0.045186241,0.057805821,0,-0.095618352
302,-33,0.9,3,73.4939759,4845.111111,-9555.51703,2148.268539,-400.3268624,-1301.941698,-2255.694635,120,-8122,-180,-539,988,1296,61.74,68.96,59.87768772,66.5417233,0.01251781,0.011805414,-0.002312283,-0.069487521
302,-33,0.9,3,74.09638554,4912,-10022,2314,-482,-1521,-2267,302.8313185,-7885.984994,-356.1783277,-606.9743141,828.4873184,1538.64319,61.74,68.96,59.86201425,66.49828113,0,0,-0.015673467,-0.043442169
302,-33,0.9,3,74.69879518,3926,-9222.223874,1049.865471,-693.5244732,-1474.994997,-2325.279672,474,-7748,-512,-662,611,1751,61.74,68.92663666,59.83788624,66.45715523,0,-0.033363336,-0.024128006,-0.041125902
302,-33,0.9,3,75.30120482,2940,-8136,-768,-861,-1355,-2448,590,-7780,-540,-716,442,1909,61.74,68.85488762,59.81042138,66.39842965,0,-0.071749046,-0.027464861,-0.058725572
302,-33,0.9,3,75.90361446,3948,-7700,-1672,-714,-959,-2736,430.4207921,-8005.854987,-365,-785.3661501,245.852724,2093.778387,61.74,68.74379363,59.76884486,66.3069854,0,-0.111093991,-0.041576519,-0.091444257
302,-33,0.9,3,76.5060241,4782,-7180,-1184,-633,-861,-2795,170,-8206,-190,-866,44,2260,61.75391602,68.75710938,59.76,66.24028715,0.013916016,0.013315748,-0.008844863,-0.066698248
302,-33,0.9,3,77.10843373,5372.347861,-7056.688,92.61260303,-692,-999.9459877,-2763,27.81374769,-7981,-193,-983.0526316,-102.0334064,2393.053345,61.79932617,68.87820313,59.76,66.20045198,0.045410156,0.12109375,0,-0.03983517
302,-33,0.9,3,77.71084337,5664,-7012,1044,-751,-1219,-2731,-218,-7756,-196,-1058,-329,2462,61.8,68.84993709,59.76,66.2,0.000673828,-0.028266034,0,-0.00045198
302,-33,0.9,3,78.31325301,5579.546745,-7327.359041,1008.011084,-718,-1372.731795,-2792.074746,-3816,-19724,1556,-824,-1596,2457,61.80577041,68.76106357,59.76,66.19340525,0.005770405,-0.088873525,0,-0.006594749
302,-33,0.9,3,78.91566265,5366,-7920,900,-685,-1509,-2922,-1956,-17738.38665,6162.656833,-117.9700813,-4649.019414,3401.5,61.86019744,68.53753225,59.76,66.13120293,0.05442703,-0.223531319,0,-0.06220232
302,-33,0.9,3,79.51807229,4742,-8594,178,-686,-1622,-3135,-96,-13764,9600,426,-6878,4346,61.87,68.44290218,59.76,66.12,0.009802565,-0.094630071,0,-0.011202931
302,-33,0.9,3,80.12048193,4702,-9180,-464,-730,-1489,-3289,-1245,-6790.61335,7124.138614,-783,-5728.566199,3840.899248,61.87,68.4,59.76,66.12,0,-0.042902176,0,0
302,-33,0.9,3,80.72289157,4716.158803,-9099.301839,-450.48,-846.0459977,-1343.26852,-3220.563985,-2394,-1806,4488,-1992,-3579,3242,61.90497942,68.34405446,59.76,66.12,0.034979424,-0.055945536,0,0
302,-33,0.9,3,81.3253012,4756.636409,-8885.505518,-418.24,-1035.156747,-1187.580764,-3052.451954,-1701.477431,-7838,4308.426303,-1186.5,-538.4338007,3113.213354,61.93,68.32541667,59.76,66.12,0.025020576,-0.018637798,0,0
302,-33,0.9,3,81.92771084,4820.434613,-8581.058276,-379.76,-1240.544498,-1032.558747,-2840.45793,-798,-13870,4146,-381,1502,3016,61.93,68.44,59.76,66.12,0,0.114583333,0,0
302,-33,0.9,4,82.53012048,4904.555212,-8228.407357,-347.52,-1405.421499,-888.8244872,-2640.375938,-394.73828,-12498.75,3078.831374,-656,1416.729868,2856.934146,61.93,68.51409443,59.76,66.11389932,0,0.074094434,0,-0.006100676
302,-33,0.9,4,83.13253012,5006,-7870,-334,-1473,-767,-2508,-56.04513774,-9482,980.4766651,-1261,1193.779649,2668.774796,61.93,68.56,59.76,66.08659042,0,0.045905566,0,-0.027308902
302,-33,0.9,4,83.73493976,5223.088901,-7498.127222,-364.5637255,-1369.286116,-680.0558275,-2452.348043,177.1705733,-6465.25,-1353.116376,-1866,882.4396048,2511.728049,61.93904228,68.61762754,59.76,66.05811281,0.009042275,0.057627537,0,-0.028477614
302,-33,0.9,4,84.3373494,5546,-6952,-420,-1199,-587,-2391,264,-5094,-3126,-2141,532,2446,61.96119091,68.67745788,59.76,66.05,0.022148639,0.059830342,0,-0.008112809
302,-33,0.9,4,84.93975904,5874.256912,-5640.919297,-472.018553,-1036.213884,-399.2447949,-2222.260984,162.6770044,-5488.153846,-4406.80325,-1337.544586,-114.3898244,3119.5,61.98897864,68.71589803,59.76,66.05,0.027787723,0.038440148,0,0
302,-33,0.9,4,85.54216867,6336,-4080,-538,-940,-231,-1975,-124,-6070,-5074,-326,-584,3793,62.02387617,68.72,59.77714635,66.05,0.03489753,0.004101973,0.017146346,0
302,-33,0.9,4,86.14457831,7300,-3026,-642,-975,-175,-1681,-4375.677004,-6363.136363,-2775.110699,48.04458599,-390.6709924,3448.317174,62.0595499,68.72,59.81940159,66.05,0.035673735,0,0.042255241,0
302,-33,0.9,4,86.74698795,7887.75266,-1977.883066,-979.7740036,-1035.632166,-230.2621269,-1242.904731,-8442,-6680,702,214,-121,2834,62.06,68.75638672,59.82,66.09152832,0.000450097,0.036386719,0.000598412,0.04152832
302,-33,0.9,4,87.34939759,8164,-1396,-1464,-1076,-343,-739,-6752,-7292,2756,132,-1,2235,62.06,68.81506116,59.82,66.12,0,0.058674441,0,0.02847168
302,-33,0.9,4,87.95180723,7252,-1818,-1948,-1017,-506,-243,-4814.893761,-7718.441308,2429.562842,-69.83915212,55.52197802,1895.310004,62.06,68.86526503,59.82,66.12,0,0.050203866,0,0
302,-33,0.9,4,88.55421687,6747.859761,-2415.760877,-1895.864583,-884.3061662,-532.0664618,57.49850876,-3686,-7928,1804,-218,80,1603,62.06767963,68.9190345,59.82,66.12,0.007679625,0.053769473,0,0
302,-33,0.9,4,89.15662651,6352,-2914,-1766,-711,-555,337,-4446,-7816,849.4371585,-193.5,49,1262.736417,62.095,68.98068127,59.82,66.12,0.027320375,0.061646766,0,0
302,-33,0.9,4,89.75903614,6025.196162,-3161.747253,-1339.849496,-540.7919072,-650.501509,692.2449409,-5206,-7704,194,-169,18,896,62.12232037,69.02801574,59.79246074,66.12,0.027320375,0.047334471,-0.02753926,0
302,-33,0.9,4,90.36144578,5600,-3274,-700,-365,-777,1130,-4278,-7866,1342,-196,121,478,62.13,69.03340525,59.74850269,66.1255621,0.007679625,0.005389515,-0.043958049,0.005562099
302,-33,0.9,4,90.96385542,4410,-2790,-70,-191,-873,1762,-3362.284672,-7926.449671,788.911125,-195.5565032,112.4285714,268.0425654,62.13,68.97120293,59.71034224,66.18325682,0,-0.06220232,-0.038160455,0.057694723
302,-33,0.9,4,91.56626506,5956,-3016,-413.9724047,-200,-1020.968986,2360.875491,-2650,-7970,-60,-194,91,154,62.13,68.9853125,59.6885613,66.21378725,0,0.014109569,-0.021780937,0.030530429
