locomotion_mode,terrain_info,walk_speed_info,gait_phase,gait_percentage,left_accel_x,left_accel_y,left_accel_z,left_gyro_x,left_gyro_y,left_gyro_z,right_accel_x,right_accel_y,right_accel_z,right_gyro_x,right_gyro_y,right_gyro_z,left_hip_angle,left_knee_angle,right_hip_angle,right_knee_angle,left_hip_angle_vel,left_knee_angle_vel,right_hip_angle_vel,right_knee_angle_vel
302,-33,0.9,1,0,2120,-8208,-268,2432,2471,7863,-1554,-7888,592,-452,147,1285,62.90505394,70.09,59.88,66.40280536,0.017195196,0,0,-0.076263742
302,-33,0.9,1,0.584795322,2604.43214,-9144.93162,-643,2259.011111,2837.826533,7715.522155,-1546.601626,-7818,844,-476.8369098,160.4425386,1407.628435,62.8584022,70.09,59.88,66.35576134,-0.04665174,0,0,-0.047044021
302,-33,0.9,1,1.169590643,3254,-9838,-1018,2109,3136,7440,-1544,-7748,1096,-514,179,1530,62.85,70.09,59.86101563,66.35,-0.008402198,0,-0.018984375,-0.005761338
302,-33,0.9,1,1.754385965,4263.018455,-10032.9865,-924.9595051,2010.238133,3317.754555,7122.400655,-2116,-7754,876,-603,214,1638,62.85,70.09,59.82,66.35,0,0,-0.041015625,0
302,-33,0.9,1,2.339181287,5228,-10184,-702,1896,3404,6791,-2069.374269,-7680,1047,-689.0969538,265.3363962,1706.737878,62.93202727,70.05445015,59.85785874,66.35,0.082027275,-0.035549846,0.037858742,0
302,-33,0.9,1,2.923976608,5851.042355,-10389.18515,20.46005151,1619.97701,3157.87488,6537.729364,-1982,-7606,1218,-779,316,1777,62.97836965,69.98942953,59.88,66.35163035,0.046342372,-0.065020622,0.022141258,0.001630353
302,-33,0.9,1,3.50877193,6158,-10644,760,1264,2675,6287,-1857.625731,-7705.252809,1202.472989,-896.0257504,357.8313253,1897.371142,62.95596934,69.89728269,59.88,66.37403066,-0.022400312,-0.092146841,0,0.022400312
302,-33,0.9,1,4.093567251,6117.3875,-11067.41162,1017.499454,919.806941,2023.679301,5989.657029,-1774,-7840,1160,-991,380,2030,62.92538804,69.78647938,59.88,66.40461196,-0.030581295,-0.110803315,0,0.030581295
302,-33,0.9,1,4.678362573,6014,-11480,1128,619,1324,5664,-1906,-7894,988,-1028,374,2136,62.91,69.68,59.88,66.42,-0.01538804,-0.106479376,0,0.01538804
302,-33,0.9,1,5.263157895,5704,-11696,902,429,817,5307,-2633.374616,-7624,332.1773884,-1025.628012,411,2182.161299,62.91,69.57842443,59.88,66.42,0,-0.101575572,0,0
302,-33,0.9,1,5.847953216,5323.33962,-11456.27134,667.136719,264.2403843,292.0280441,4858.597039,-3258,-7354,-198,-1019,448,2221,62.91,69.50301788,59.87446289,66.42645996,0,-0.075406544,-0.005537109,0.006459961
302,-33,0.9,1,6.432748538,4868,-10882,430,110,-192,4355,-2910,-8087.241379,331,-938.371988,442.5,2270.799671,62.91,69.45868349,59.82553711,66.48354004,0,-0.044334395,-0.048925781,0.057080078
302,-33,0.9,1,7.01754386,4276,-9502,196,-40,-568,3810,-2562,-8890,860,-862,437,2337,62.91,69.3568961,59.82,66.49,0,-0.101787389,-0.005537109,0.006459961
302,-33,0.9,1,7.602339181,3419.570919,-8617.788749,-325.4825968,-28.74213836,-784.2685266,3338.856048,-2794,-8974,778,-880,445,2459,62.91,69.21055444,59.82,66.49,0,-0.146341659,0,0
302,-33,0.9,1,8.187134503,2564,-8130,-706,0,-884,2916,-2436,-8726.339286,769.9255121,-1004.212329,405,2457,62.91,69.12327161,59.82,66.527125,0,-0.087282836,0,0.037125
302,-33,0.9,1,8.771929825,1901.240667,-8000.219072,-717.9302832,120.5200377,-875.1382022,2531.235211,-2078,-8304,762,-1114,365,2455,62.91,69.05447296,59.82553711,66.58363054,0,-0.068798641,0.005537109,0.056505542
302,-33,0.9,1,9.356725146,1424,-7950,-722,278,-851,2192,-3198.121582,-8010.42143,400.3721376,-1057.623173,404.7646976,2495,62.91,68.98424619,59.87446289,66.62669589,0,-0.07022677,0.048925781,0.04306535
302,-33,0.9,1,9.941520468,1129.679389,-8109.772727,-575.5076698,380.2808656,-678.1731185,1900.472166,-4732,-7574,-228,-961,490,2535,62.90304616,68.89306415,59.88,66.68050064,-0.006953836,-0.091182046,0.005537109,0.053804751
302,-33,0.9,1,10.52631579,992,-8320,-360,457,-439,1653,-5368,-6018,-830,-877,633,2407,62.87863678,68.78392174,59.88,66.72,-0.024409383,-0.109142408,0,0.039499356
302,-33,0.9,1,11.11111111,1020,-8394,-244,502,-299,1460,-4039,-6512.519135,-752,-906,807.8557503,2350.175297,62.85522915,68.68396586,59.88,66.72,-0.02340763,-0.099955883,0,0
302,-33,0.9,1,11.69590643,1118.296678,-8278.15303,-257.7606838,540.620229,-215.1685879,1233.027915,-2710,-7306,-674,-935,912,2326,62.85,68.61996005,59.88,66.7258019,-0.005229151,-0.064005803,0,0.005801896
302,-33,0.9,1,12.28070175,1202,-8080,-290,561,-176,1010,-3262.790419,-8013.480865,-950,-854.8571429,767.5,2474,62.85,68.58103403,59.88,66.77055355,0,-0.038926025,0,0.044751654
302,-33,0.9,1,12.86549708,1210.814433,-7865.84697,-393.2393162,545.6073298,-277.5086527,820.0972126,-3886,-8422,-1226,-770,623,2622,62.85,68.50421733,59.88,66.8190291,0,-0.076816704,0,0.04847555
302,-33,0.9,2,13.4502924,1214,-7734,-478,512,-473,656,-3961.579509,-8236.08703,-90,-764.7591938,666.1610429,2556.5,62.85,68.4,59.88,66.87,0,-0.104217325,0,0.0509709
302,-33,0.9,2,14.03508772,1204.792952,-7934.41085,-462.7041166,455.9890389,-709.177277,527.089479,-4046,-7740,1046,-760,730,2491,62.85,68.34653253,59.83898438,66.91379044,0,-0.053467466,-0.041015625,0.043790442
302,-33,0.9,2,14.61988304,1176,-8360,-418,370,-985,406,-4784,-5940,340,-741,765,2589,62.84019744,68.29962342,59.8284022,66.95864434,-0.009802565,-0.046909114,-0.010582177,0.044853896
302,-33,0.9,2,15.20467836,916,-9054,-164,235,-1262,270,-5614.789474,-5969,-473.2577763,-720.6153846,856.1896678,2500.712392,62.78577041,68.25379951,59.87505394,67.00644517,-0.05442703,-0.045823911,0.04665174,0.047800835
302,-33,0.9,2,15.78947368,726,-9202,30,120,-1392,185,-6096,-5998,-948,-709,940,2344,62.78,68.48248321,59.88,67.04880531,-0.005770405,0.228683699,0.004946061,0.042360139
302,-33,0.9,2,16.37426901,491.7866155,-9017.354651,14.11677632,-31.51769231,-1496.885584,53.23093466,-5248,-5970,-598,-828,962,2193,62.78,68.88,59.88,67.09,0,0.397516792,0,0.041194687
302,-33,0.9,2,16.95906433,288,-8656,-28,-146,-1598,-69,-4788.206423,-6562,-909,-981.6491781,881.8962656,2214,62.74131532,68.83667962,59.88,67.14044949,-0.03868468,-0.043320384,0,0.050449486
302,-33,0.9,2,17.54385965,192.3312693,-8066.645349,-316.1167763,-187.5723077,-1717.934748,-136.1003565,-4526,-7154,-1220,-1103,742,2235,62.69244911,68.7774525,59.88,67.18712304,-0.048866214,-0.059227112,0,0.04667355
302,-33,0.9,2,18.12865497,80,-7654,-578,-205,-1829,-187,-4409.257883,-6961.924843,-632,-1158.492958,581.1037344,2213.5,62.65324083,68.72448023,59.88,67.22700298,-0.039208274,-0.052972275,0,0.039879938
302,-33,0.9,2,18.71345029,-300,-7706,-432,-197,-1907,-229,-4360,-6498,-44,-1183,480,2192,62.65,68.72,59.88,67.27443539,-0.003240831,-0.004480229,0,0.047432416
302,-33,0.9,2,19.29824561,-506.3867004,-7967.531216,-159.7183443,-187.557554,-1900.177656,-291.4617439,-5351.982546,-4774.075157,-466.1843837,-1176.69863,523.4003115,2267.5,62.65,68.72071331,59.88,67.32468436,0,0.000713306,0,0.050248968
302,-33,0.9,2,19.88304094,-690,-8280,86,-182,-1882,-376,-6638,-3322,-1230,-1163,629,2343,62.65,68.77311385,59.88,67.36942612,0,0.052400549,0,0.044741757
302,-33,0.9,2,20.46783626,-949.5078851,-8460.906398,202.9985465,-205.1402439,-1795.863761,-496.0496963,-7062,-3634,-2008,-1139,897,2092,62.65,68.77785156,59.88,67.41305858,0,0.004737708,0,0.043632459
302,-33,0.9,2,21.05263158,-1204,-8550,256,-248,-1634,-653,-5572,-4127.319133,-1880,-1195.25,891.7219562,2072.132133,62.65,68.58214844,59.88,67.4563128,0,-0.195703125,0,0.04325422
302,-33,0.9,2,21.6374269,-1407.093639,-8472.659866,220.273523,-301.7318491,-1366.641615,-866.7093562,-4082,-4846,-1752,-1292,875,2066,62.65,68.58418423,59.9044043,67.50452017,0,0.002035795,0.024404297,0.048207374
302,-33,0.9,2,22.22222222,-1564,-8296,140,-346,-1049,-1092,-4348,-6094,-2310,-1377,706,2183,62.64930185,68.64509405,59.94,67.55485089,-0.000698148,0.060909817,0.035595703,0.050330715
302,-33,0.9,2,22.80701754,-1658,-7934,-16,-360,-787,-1268,-4866.879301,-7431.873462,-1757.711661,-1452.870217,499.7575075,2153,62.60000407,68.70378384,59.94,67.60275025,-0.049297781,0.058689788,0,0.047899368
302,-33,0.9,2,23.39181287,-1742,-7394,-108,-358,-331,-1525,-5252,-8194,-852,-1518,377,2123,62.58,68.70879707,59.94,67.64691512,-0.020004071,0.005013231,0,0.04416487
302,-33,0.9,2,23.97660819,-1700.96901,-6484.368651,2638.592593,108.6312891,380.6456382,-2119.541494,-5280.643846,-7289.981832,10.71166078,-1579.1,400.607192,2244.69457,62.58,68.64659475,59.94,67.68720822,0,-0.06220232,0,0.0402931
302,-33,0.9,2,24.56140351,-1568.826909,-5138.247858,7739.407407,971.6489779,1352.404025,-3021.374228,-5314,-6000,520,-1612,467,2421,62.55785874,68.66952168,59.94,67.73193699,-0.022141258,0.022926929,0,0.044728765
302,-33,0.9,2,25.14619883,-1332,-3260,10486,1436,2598,-3988,-6448,-5376,-616,-1551,774,2511,62.52,68.72,59.94,67.78,-0.037858742,0.050478323,0,0.048063012
302,-33,0.9,2,25.73099415,306,452,1576,-1121,4581,-4991,-6369.964068,-6184.392193,-1250.289466,-1559.079787,964.7721445,2465.39781,62.52,68.72,59.94,67.83057027,0,0,0,0.050570269
302,-33,0.9,2,26.31578947,1485.735342,-4825.891667,599.766598,-916.6688333,1817,-4544.093506,-6168,-7456,-1540,-1579,1055,2406,62.52,68.72,59.949375,67.87803794,0,0,0.009375,0.047467672
302,-33,0.9,2,26.9005848,2072,-11846,288,-450,-947,-3682,-5522,-8308,-1534,-1632,990,2386,62.52,68.72,59.99742188,67.92107226,0,0,0.048046875,0.043034314
302,-33,0.9,2,27.48538012,-9397,-15148.10833,9562,884.1688333,-326.8479247,-2338.906494,-5536.807487,-9626.358255,-1361.552119,-1698.334704,758.0887716,2459,62.48808467,68.72,60,67.96725885,-0.031915327,0,0.002578125,0.046186591
302,-33,0.9,2,28.07017544,-20866,-16708,18836,1956,455,-1411,-5574,-10494,-1006,-1771,573,2532,62.45,68.72,60,68.01470588,-0.038084673,0,0,0.047447035
302,-33,0.9,2,28.65497076,-44,2252,6264,631,681,-4129,-5703.811514,-10526.78296,-253.7960954,-1863.478299,584,2449.867435,62.45,68.72,60,68.06176471,0,0,0,0.047058824
302,-33,0.9,2,29.23976608,2638,-8982,-574,-898,618,-4210,-5896,-10538,310,-1920,595,2282,62.4415978,68.70879707,60.0084022,68.10871983,-0.008402198,-0.011202931,0.008402198,0.046955121
302,-33,0.9,2,29.8245614,-1278,-10864,-1750,-749,-291,-4295,-6099.343359,-10039.37325,-21.552,-1907.592309,545.5881497,2042.342,62.39494606,68.64659475,60.05505394,68.15558919,-0.04665174,-0.06220232,0.04665174,0.046869367
302,-33,0.9,2,30.40935673,929.8518519,-10454.94162,-1430.287766,-178.964682,-285.6612831,-4077.359146,-6339.081279,-8812.039744,-812.176,-1872.136926,425.0844492,1700.789688,62.39,68.64,60.06,68.20524192,-0.004946061,-0.006594749,0.004946061,0.049652731
302,-33,0.9,2,30.99415205,5030.148148,-9620.549906,-768.7977543,651.9065479,-272.3225662,-3591.940514,-6568.347519,-7258.819616,-1755.824,-1816.285389,275.0866738,1309.066377,62.39,68.64089844,60.06,68.25462937,0,0.000898437,0,0.049387445
302,-33,0.9,2,31.57894737,7238,-8950,-212,1077,-255,-3090,-6740.27584,-5782.532992,-2546.448,-1742.689234,137.1925989,918.8953771,62.39,68.70144531,60.06,68.29835851,0,0.060546875,0,0.043729141
302,-33,0.9,2,32.16374269,7168.968925,-8557.179025,154.2909078,874.34375,-220.0448772,-2645.483789,-6808,-4786,-2878,-1654,53,582,62.37679698,68.72,60.07131687,68.34186148,-0.013203018,0.018554688,0.011316872,0.043502972
302,-33,0.9,2,32.74853801,6966.917134,-8202.881356,497.8141402,428.5,-166.5121131,-2178.572926,-6470,-4197.634541,-2855.372225,-1444.33492,12.13101604,301.4593987,62.32518519,68.72,60.11555556,68.38609582,-0.051611797,0,0.044238683,0.044234336
302,-33,0.9,2,33.33333333,6639.406775,-7946.643008,752.4303026,-17.34375,-117.4732924,-1709.8756,-6132,-3860,-2788,-1184,-7,51,62.32,68.72,60.12,68.43436061,-0.005185185,0,0.004444444,0.048264793
302,-33,0.9,2,33.91812865,6194,-7848,852,-220,-96,-1260,-6450,-3784,-2360,-1010,106,-161,62.31932617,68.71910156,60.12,68.48529297,-0.000673828,-0.000898437,0,0.050932358
302,-33,0.9,2,34.50292398,4890,-8176,-450,-125,-178,-841,-6600.645695,-3693.990545,-1728.544484,-820.1313289,340.7031948,-549.3222915,62.27391602,68.65855469,60.12,68.54681641,-0.045410156,-0.060546875,0,0.061523437
302,-33,0.9,2,35.0877193,3682.274846,-7968,248.892511,-23.64389068,-82.5,-670.7287659,-6666,-3556,-1292,-602,660,-1035,62.26,68.65669041,60.12,68.56,-0.013916016,-0.001864274,0,0.013183594
302,-33,0.9,2,35.67251462,3028,-7760,1178,34,13,-524,-6547.701943,-3259.100341,-1249.065291,-326.7998638,1126.634992,-1474.412078,62.26,68.71693873,60.12,68.56,0,0.060248321,0,0
302,-33,0.9,2,36.25730994,4062,-7805,1614.107489,-65.5,-14.53164557,-292.3679206,-6168,-2570,-1206,-3,1432,-2050,62.26,68.72,60.12,68.58709546,0,0.003061266,0,0.027095461
302,-33,0.9,2,36.84210526,5096,-7850,1820,-165,-62,-17,-1822,1708,-952,378,1178,-3227,62.26,68.72,60.12,68.64469791,0,0,0,0.057602444
302,-33,0.9,2,37.42690058,4008,-7724,262,-154,-104,294,-1145.000916,2516.031464,-3161.937956,377,277.1339075,-2895.838648,62.26,68.72,60.12,68.69140274,0,0,0,0.046704838
302,-33,0.9,2,38.01169591,3088.58992,-7714.814607,-29.2687188,-57.26430468,-47.5,354.5536373,-918,2796,-5548,376,-844,-2383,62.25105013,68.7075,60.129375,68.73966243,-0.008949867,-0.0125,0.009375,0.048259688
302,-33,0.9,2,38.59649123,2606,-7712,-130,53,9,398,-2630,-484,-5758,728,-1558,-2056,62.1970659,68.6434375,60.17742188,68.78996718,-0.053984237,-0.0640625,0.048046875,0.05030475
302,-33,0.9,2,39.18128655,2738,-7758,442,91.01482089,-4.602272727,482.094823,-2096,-2105.158329,-3567.418934,1130.222455,-1797.017893,-2355.554009,62.16919974,68.66144446,60.18,68.84474596,-0.027866152,0.018006958,0.002578125,0.054778776
302,-33,0.9,2,39.76608187,2870,-7804,1014,111,-29,555,-1562,-3338,-606,1438,-1891,-2878,62.14679197,68.73267944,60.18026958,68.88520948,-0.022407775,0.071234982,0.00026958,0.040463525
302,-33,0.9,2,40.35087719,2466.078752,-7745,889,118.8115942,-59.39772727,592.0450237,-1789.492029,-4862.775514,879.4189336,1550.387258,-1733.15424,-3379.346608,62.13263518,68.82582811,60.1884022,68.90963753,-0.014156787,0.093148674,0.008132619,0.024428052
302,-33,0.9,2,40.93567251,1922,-7686,764,122,-79,609,-2188,-5736,1594,1652,-1445,-3852,62.13,68.92401408,60.20386232,68.93050352,-0.002635181,0.098185971,0.015460117,0.020865991
302,-33,0.9,2,41.52046784,1658.133153,-7708.918919,877.0016447,118.6785714,-45.5,550.8469388,-2541.550401,-5721.507524,1024.65355,1840.691578,-1143.950868,-4195.094477,62.13,69.03497359,60.22122215,68.94663044,0,0.110959507,0.017359839,0.016126921
302,-33,0.9,2,42.10526316,1524,-7750,1066,110,-12,445,-2942,-5672,56,2082,-818,-4498,62.14956066,69.04,60.23505394,68.95684129,0.019560655,0.005026408,0.013831784,0.010210842
302,-33,0.9,2,42.69005848,1512.9871,-7791.106081,1256.998355,67.16991342,-16.375,335.5275106,-3440,-4250,-768,2365,-510,-4795,62.19422371,69.03857949,60.24,68.95910156,0.044663058,-0.001420506,0.004946061,0.002260276
302,-33,0.9,2,43.2748538,1502,-7834,1372,10,-26,217,-3419.413187,-3533.055421,-1192.817843,2577.226084,-167.667109,-5052.40872,62.24796614,68.93228958,60.24,68.89855469,0.053742422,-0.106289918,0,-0.060546875
302,-33,0.9,2,43.85964912,1341.026584,-7881.975,1232,-24.61663001,-49.625,109.7630288,-3364,-3216,-1382,2765,153,-5291,62.26,68.85219176,60.25251781,68.88,0.012033864,-0.080097819,0.01251781,-0.018554688
302,-33,0.9,2,44.44444444,1122,-7910,1092,-55,-68,-9,-2947.845548,-3419.102103,-1334.728307,2967.906065,417.406458,-5531.251713,62.26,68.8090552,60.29770405,68.88,0,-0.043136562,0.045186241,0
302,-33,0.9,2,45.02923977,1028.648216,-7789,1140.869565,-83.92094113,-61.19736842,-173.5746702,-2530,-3820,-1248,3127,622,-5739,62.23590429,68.75297374,60.3,68.84352534,-0.024095715,-0.056081452,0.00229595,-0.036474659
302,-33,0.9,2,45.61403509,908,-7668,1220,-114,-46,-354,-2486,-4346,-1156,3203,744,-5882,62.18587789,68.72046782,60.3,68.8,-0.050026398,-0.032505923,0,-0.043525341
302,-33,0.9,2,46.19883041,388,-7918,1278,-151,-17,-519,-2282,-5080,-1112,3262,732,-6029,62.13970145,68.76407706,60.3,68.8,-0.046176442,0.04360924,0,0
302,-33,0.9,2,46.78362573,496,-7826,964,-160,-46,-842,-2068.770623,-5572.169952,-1279.737301,3280.341677,568.2682083,-6079.111202,62.13,68.85624869,60.3,68.78330959,-0.009701445,0.092171632,0,-0.016690413
302,-33,0.9,2,47.36842105,686,-7618,840,-182,-56,-1048,-1868.607534,-5975.295156,-1596.807935,3291.948616,212.1023794,-6111.500045,62.13,69.01414399,60.3,68.72306127,0,0.157895296,0,-0.060248321
302,-33,0.9,2,47.95321637,1041.460659,-7667.259259,1057.259259,-245.5052568,-82.23018198,-1206.312756,-1780,-6406,-1784,3296,-194,-6123,62.13,69.14337432,60.3,68.76,0,0.129230337,0,0.036938734
302,-33,0.9,2,48.5380117,1483.983083,-7758.740741,1460.740741,-342.577765,-119.635287,-1341.977411,-2392,-6924,-1802,3243,-658,-6097,62.13,69.1922817,60.30229595,68.79791573,0,0.048907378,0.00229595,0.037915734
302,-33,0.9,2,49.12280702,1792,-7808,1678,-428,-148,-1453,-2956.568462,-7439.415591,-1623.742765,3166.113823,-1024.412484,-6063.315215,62.13,69.02765724,60.34748219,68.74841441,0,-0.164624466,0.045186241,-0.049501323
302,-33,0.9,2,49.70760234,1912,-7540,1312,-484,-161,-1535,-3262,-7954,-1378,3062,-1320,-6014,62.13,68.92572359,60.36,68.69662016,0,-0.101933645,0.01251781,-0.051794251
302,-33,0.9,2,50.29239766,1866.210526,-7630,1041.565349,-520.4177596,-191.2922275,-1616.341462,-3245,-8447.6742,-1276.995723,2893.020881,-1561.258364,-5907.198799,62.13,68.88159577,60.36,68.64963612,0,-0.044127824,0,-0.046984038
302,-33,0.9,2,50.87719298,1792,-7720,906,-550,-215,-1711,-3228,-8984,-1180,2711,-1727,-5762,62.13,68.8925,60.36,68.60030006,0,0.010904234,0,-0.04933606
302,-33,0.9,2,51.4619883,1723.789474,-7685.007299,979,-578.6168655,-217.0910345,-1862.100002,-3496,-9676,-1016,2583,-1799,-5610,62.13,68.92746094,60.36257813,68.55029861,0,0.034960938,0.002578125,-0.050001456
302,-33,0.9,2,52.04678363,1684,-7618,1052,-602,-219,-2013,-3695.618912,-10472.87321,-619.9011705,2454.862879,-1801.322335,-5374.101646,62.13,68.9565625,60.410625,68.50307137,0,0.029101562,0.048046875,-0.047227233
302,-33,0.9,3,52.63157895,2042.316834,-7547.565399,1012.857704,-621.154321,-230.34,-2128.199161,-3880,-10938,-92,2318,-1802,-5083,62.13,68.96,60.40444444,68.42931171,0,0.0034375,-0.006180556,-0.07375966
302,-33,0.9,3,53.21637427,2796,-7446,898,-631,-240,-2188,-4082,-10924,430,2156,-1633,-4751,62.13,68.96,60.36205761,68.33343462,0,0,-0.042386831,-0.095877093
302,-33,0.9,3,53.80116959,3990,-7244,230,-587,-227,-2142,-4522.626625,-10514.86328,412.1774194,2007.696408,-1358.561695,-4517.88727,62.095,68.96,60.36,68.28525273,-0.035,0,-0.002057613,-0.048181888
302,-33,0.9,3,54.38596491,4062.197665,-7190.064955,424.4665314,-565.4467456,-256.4034091,-1981.513274,-4836,-9840,390,1882,-1007,-4365,62.06,68.95693873,60.36,68.23596228,-0.035,-0.003061266,0,-0.049290449
302,-33,0.9,3,54.97076023,4084,-7170,742,-556,-302,-1854,-4726,-9272,384,1794,-582,-4301,62.06,68.89669041,60.36,68.13342282,0,-0.060248321,0,-0.102539468
302,-33,0.9,3,55.55555556,3467.848913,-7409,1040.533469,-611.5,-333.6280679,-1860.484756,-4382.692285,-8629.082294,147.3542714,1654.078755,-13.11603023,-4217.895983,62.04608398,68.89855469,60.37391602,68.06126914,-0.013916016,0.001864274,0.013916016,-0.072153672
302,-33,0.9,3,56.14035088,2702,-7648,1216,-704,-359,-1878,-3866,-8256,-84,1513,574,-4133,62.00067383,68.95910156,60.41932617,68.01477963,-0.045410156,0.060546875,0.045410156,-0.046489511
302,-33,0.9,3,56.7251462,2496,-7476,1110,-778,-375,-1945,-3272.647937,-8593,32,1417.984466,1103.646725,-4067.576647,62,68.96,60.42,67.97057124,-0.000673828,0.000898437,0.000673828,-0.044208395
302,-33,0.9,3,57.30994152,2735.225121,-7496,867.5883455,-846.1512981,-385.7915102,-2052.817321,-2606,-8930,148,1338,1513,-3997,62,68.96,60.41770405,67.91602401,0,0,-0.00229595,-0.054547224
302,-33,0.9,3,57.89473684,3208,-7516,572,-883,-396,-2123,-1901.817251,-8758.824675,125.6068884,1249.860804,1779.385971,-3903.683618,62,68.96,60.37251781,67.82078071,0,0,-0.045186241,-0.095243301
302,-33,0.9,3,58.47953216,3838.419609,-7129.582715,365.3129482,-854.0818476,-412.453125,-2098.98051,-1230,-8526,58,1198,1907,-3767,62,68.96,60.36,67.75324018,0,0,-0.01251781,-0.067540534
302,-33,0.9,3,59.06432749,4566,-6548,100,-793,-423,-2048,-696,-8432,-412,1195,1817,-3481,62,68.96,60.36,67.70611989,0,0,0,-0.047120292
302,-33,0.9,3,59.64912281,5214,-6210,-570,-695,-368,-1965,-365.8724261,-8481,-637.6858736,1226.5,1656.758671,-3216.441904,62.03264401,68.96,60.36,67.62609366,0.032644006,0,0,-0.080026231
302,-33,0.9,3,60.23391813,5005.477963,-6471.600634,-502.7281947,-639.3897364,-368,-1804.433507,-210,-8530,-736,1258,1454,-2954,62.06,68.96237657,60.36,67.52962997,0.027355994,0.002376569,0,-0.096463684
302,-33,0.9,3,60.81871345,4578,-6890,-350,-609,-368,-1694,-241.961506,-8525.9375,-689.8279037,1243.242393,1219.85971,-2671.178351,62.06,69.01658757,60.36,67.41661723,0,0.054211,0,-0.11301274
302,-33,0.9,3,61.40350877,3775.245412,-7215.924667,75.72819473,-598.99,-369.925,-1724.202572,-325.7306827,-8517,-573.5410765,1202.979714,953.2320784,-2377.202847,62.06,69.07504546,60.36,67.4,0,0.058457886,0,-0.016617231
302,-33,0.9,3,61.98830409,3172,-7472,416,-595,-375,-1787,-443.134518,-8508.0625,-420.483711,1143.227178,704.7384072,-2089.875919,62.06,69.11947063,60.36,67.4,0,0.044425172,0,0
302,-33,0.9,3,62.57309942,3142.276625,-7610.832113,380.8780488,-615.6022727,-407.2185045,-1893.770219,-576,-8504,-264,1070,525,-1827,62.09808467,69.12,60.32735599,67.32629357,0.038084673,0.000529373,-0.032644006,-0.07370643
302,-33,0.9,3,63.15789474,3132,-7720,326,-651,-438,-2005,-772,-8688,-88,931,426,-1602,62.13,69.1234375,60.3,67.2291544,0.031915327,0.0034375,-0.027355994,-0.097139165
302,-33,0.9,3,63.74269006,3424,-7828,290,-682,-440,-2064,-473.8652174,-8851.914572,74.24604966,678.653557,379.4666057,-1267.111973,62.13,69.1875,60.3,67.18959087,0,0.0640625,0,-0.03956353
302,-33,0.9,3,64.32748538,4038.504914,-8437.173554,192.8998243,-611.5,-416.5,-2109.116995,-88,-9038,162,394,335,-879,62.13,69.2,60.28285365,67.12457957,0,0.0125,-0.017146346,-0.065011307
302,-33,0.9,3,64.9122807,4714,-8962,120,-541,-393,-2132,36.84647676,-9386.824618,-66,171.7237587,256.5503826,-493.8942297,62.13,69.2,60.24059841,67.02898928,0,0,-0.042255241,-0.095590291
302,-33,0.9,3,65.49707602,5148,-7636,884,-566,-494,-2080,148,-9662,-294,-45,151,-92,62.13,69.2,60.24,66.93507612,0,0,-0.000598412,-0.093913154
302,-33,0.9,3,66.08187135,4756,-7568,674,-599,-623,-2035,334,-9710,-150,-285,7,333,62.13,69.20475314,60.23742188,66.85820818,0,0.004753138,-0.002578125,-0.076867941
302,-33,0.9,3,66.66666667,4148,-7306,-18,-531,-626,-2128,224,-9572,-268,-423,-63,602,62.13,69.31317514,60.189375,66.81204779,0,0.108421999,-0.048046875,-0.046160389
302,-33,0.9,3,67.25146199,4278,-6948,-660,-484,-604,-2188,130,-9058,-422,-522,-24,888,62.13,69.43009091,60.18,66.73913221,0,0.116915773,-0.009375,-0.072915585
302,-33,0.9,3,67.83625731,4376.457762,-6859.487081,-491.25,-472.6409131,-558.3777119,-2274.128766,-4,-8610,-198,-607,36,1016,62.13,69.51894125,60.18,66.64630769,0,0.088850344,0,-0.09282452
302,-33,0.9,3,68.42105263,4455.669093,-6818.015678,-120,-466.337857,-494.4746328,-2377.586681,101.1270879,-8319.371587,-12.37300246,-690.0118366,34.83797887,1179.93261,62.15665114,69.47253906,60.18,66.59876499,0.026651142,-0.046402192,0,-0.0475427
302,-33,0.9,3,69.00584795,4558.545879,-6776.536436,251.25,-461.3658723,-437.5842373,-2464.501255,304.0319535,-8085.282967,148.9076747,-765.8392516,31.45373552,1348.150724,62.20445801,69.44738281,60.18,66.55591406,0.047806866,-0.02515625,0,-0.042850926
302,-33,0.9,3,69.59064327,4728,-6688,420,-454,-413,-2501,436,-7836,246,-799,26,1432,62.25538574,69.51261719,60.18,66.5062526,0.050927734,0.065234375,0,-0.049661458
302,-33,0.9,3,70.1754386,5628.261688,-6095.062962,330.3028883,-438.5488827,-477.2983425,-2470.556002,472.0421206,-7500.533025,278.8537038,-789.2310942,-39.66912801,1442.309664,62.26,69.49311385,60.17341746,66.44696074,0.004614258,-0.019503333,-0.006582536,-0.059291861
302,-33,0.9,3,70.76023392,6420,-5566,198,-428,-589,-2411,496.7988381,-7146.927063,298.1179818,-766.7955218,-163.4909861,1448.765943,62.26,69.44071331,60.15,66.37726238,0,-0.052400549,-0.023417464,-0.069698361
302,-33,0.9,3,71.34502924,6186.801694,-5717.243765,123.5598359,-486.9902913,-712.0251688,-2316.937478,506,-6912,340,-742,-255,1451,62.26,69.51343803,60.12658254,66.30945857,0,0.07272472,-0.023417464,-0.067803816
302,-33,0.9,3,71.92982456,5718.492277,-6044.931974,61.03848492,-607.9805825,-841.1792511,-2203.246517,256,-6820,628,-716,-288,1374,62.26,69.63292501,60.12,66.25423683,0,0.119486987,-0.006582536,-0.055221738
302,-33,0.9,3,72.51461988,5362,-6360,-4,-707,-901,-2148,143.8571429,-7001.72435,785.7950017,-680.4875439,-252.9130435,1318.03437,62.26,69.74457541,60.12,66.20626771,0,0.111650396,0,-0.047969121
302,-33,0.9,3,73.0994152,5182.322537,-6647.586545,-69.75843199,-757.4244315,-887.7777778,-2190.252761,96,-7248,926,-639,-192,1288,62.26,69.76,60.10101563,66.2,0,0.015424591,-0.018984375,-0.006267709
302,-33,0.9,3,73.68421053,5042.383491,-6924.237717,-138.3330634,-797.3752924,-863.2222222,-2280.061077,110,-7346,1114,-593,-137,1285,62.26,69.76,60.06,66.2,0,0,-0.041015625,0
302,-33,0.9,3,74.26900585,4986,-7048,-230,-840,-850,-2362,1.222993062,-7237,1134.976698,-534.9630653,-131.6763158,1333.510568,62.26,69.65904335,60.06,66.14952168,0,-0.100956646,0,-0.050478323
302,-33,0.9,3,74.85380117,5301.849057,-6901,-441.4929478,-895.5625883,-873.22,-2423.061415,-258,-7128,1154,-439,-130,1470,62.26,69.6,60.06,66.12,0,-0.059043354,0,-0.029521677
302,-33,0.9,3,75.43859649,5706,-6754,-598,-945,-904,-2466,-900.1497121,-13784,1239.564516,52.96921642,-1312.960984,3313.989432,62.26,69.6,60.06,66.12,0,0,0,0
302,-33,0.9,3,76.02339181,5867.150943,-7374.500598,-528.9765625,-973.1752232,-918.28,-2480.362562,-1908,-20440,1496,479,-3186,5070,62.27898438,69.5746875,60.06,66.12,0.018984375,-0.0253125,0,0
302,-33,0.9,4,76.60818713,5940,-8120,-412,-1000,-925,-2496,-3200,-2720,12710,294,-4467,3384,62.32,69.52,60.06,66.12,0.041015625,-0.0546875,0,0
302,-33,0.9,4,77.19298246,5908,-8265.305259,-298.6920519,-1038.370711,-849.8171806,-2580.39746,-3608,-5630,5594,-1018,-4966,3730,62.32,69.55907999,60.06,66.12,0,0.039079992,0,0
302,-33,0.9,4,77.77777778,5876,-8426,-214,-1085,-711,-2682,521.4814815,-14468.6584,8123.851852,-615.8888889,-3365.851852,3017.037037,62.32,69.61331437,60.06,66.12659475,0,0.054234378,0,0.006594749
302,-33,0.9,4,78.3625731,6030,-9272,-188,-1143,-561,-2729,8190.518519,-26633.66253,12822.14815,130.8888889,-394.1481481,1692.962963,62.32,69.65686682,60.06,66.18879707,0,0.043552455,0,0.06220232
302,-33,0.9,4,78.94736842,7254,-9158,8,-1203,-654,-2626,12320,-32768,15352,533,1206,980,62.34214844,69.73992811,60.04101563,66.2,0.022148438,0.083061287,-0.018984375,0.011202931
302,-33,0.9,4,79.53216374,7348,-9326,600,-1316,-764,-2391,10116.77256,-29496.84439,11045.68464,499.5871913,422.5,1959,62.39,69.85,60,66.2,0.047851562,0.110071888,-0.041015625,0
302,-33,0.9,4,80.11695906,7332.444444,-9112.856369,655.4868868,-1399.296269,-834.9904844,-2254.170349,5764,-20968,2422,388,-361,2938,62.39,69.91158101,60,66.2,0,0.06158101,0,0
302,-33,0.9,4,80.70175439,7303.555556,-8599.712737,685.1878878,-1470.079959,-891.1688533,-2147.401476,38,7134,-9382,-1703,405,2846,62.39,69.92261719,60,66.2,0,0.011036177,0,0
302,-33,0.9,4,81.28654971,7288,-7976,694,-1537,-936,-1992,1024,2704.580424,-8505.904955,-1289.392686,76.82199257,3416.018192,62.39,69.85738281,60,66.2,0,-0.065234375,0,0
302,-33,0.9,4,81.87134503,7752,-7105.524101,585.9597718,-1617.467798,-978.078125,-1636.621482,2010,-4270,-6478,-558,-317,4074,62.39319872,69.87105609,60,66.2,0.00319872,0.013673274,0,0
302,-33,0.9,4,82.45614035,8216,-6158,282,-1664,-1000,-1200,-2502,-8958,-2138,139,-404,4186,62.40609152,69.95848005,60,66.2,0.0128928,0.087423961,0,0
302,-33,0.9,4,83.04093567,6266,-5472,-1126,-1538,-936,-851,-5520.719619,-8263,1272.203967,127.9847716,-127,3448.185567,62.42359232,70.08401696,59.96214126,66.2,0.0175008,0.125536909,-0.037858742,0
302,-33,0.9,4,83.62573099,5530,-4768,-1536,-1398,-804,-738,-6984,-7568,3018,99,150,2482,62.43994112,70.21505527,59.94,66.20645996,0.0163488,0.131038315,-0.022141258,0.006459961
302,-33,0.9,4,84.21052632,5508.307896,-4241.211009,-1978.97929,-1163.224842,-703.7363335,-692.61568,-5111,-7692.324468,1976.048058,-86.98477157,113.7845304,2132.865528,62.44937792,70.31898345,59.94,66.26354004,0.0094368,0.103928177,0,0.057080078
302,-33,0.9,4,84.79532164,5502,-3976,-2232,-926,-653,-638,-3238,-7886,668,-255,55,1858,62.45,70.37538676,59.94,66.24416853,0.00062208,0.056403312,0,-0.019371507
302,-33,0.9,4,85.38011696,6364,-4196,-1898,-780,-707,-375,-3433,-8043.675532,190.9519421,-173,0.715469613,1539.005659,62.45,70.42,59.94,66.2,0,0.044613239,0,-0.044168532
302,-33,0.9,4,85.96491228,6331.498096,-4488.361557,-1507.255257,-764.2152639,-753.5965922,-88.26331897,-3628,-8132,-20,-91,-31,1249,62.45,70.47265889,59.94,66.24785156,0,0.052658892,0,0.047851563
302,-33,0.9,4,86.5497076,6239.885081,-4790.736334,-1096.238266,-757.0178883,-796.8542574,220.0415312,-3242,-8118,1390,-116,14,1030,62.45883402,70.54204832,59.94,66.27,0.008834019,0.069389432,0,0.022148437
302,-33,0.9,4,87.13450292,6098,-4930,-748,-747,-841,569,-3076.94377,-8093.791692,1243.382191,-207.554878,47.94078399,842.9780331,62.51116598,70.63795168,59.94,66.27,0.052331962,0.095903352,0,0
302,-33,0.9,4,87.71929825,5680,-4646,-502,-726,-888,1005,-2902,-8044,856,-281,74,681,62.52,70.714554,59.92101563,66.2953125,0.008834019,0.07660232,-0.018984375,0.0253125
302,-33,0.9,4,88.30409357,5506,-3960,-348,-659,-965,1269,-2414,-7788,-492,-208,91,551,62.52,70.76,59.88,66.35,0,0.045446004,-0.041015625,0.0546875
302,-33,0.9,4,88.88888889,5387.317695,-1854.520196,-680.4341505,-523.1726071,-552.2419133,1845.717606,-2341.956204,-7848.506711,-451.4662921,-80.18167365,41.19469835,508.3727273,62.56101563,70.76,59.88,66.35,0.041015625,0,0,0
302,-33,0.9,4,89.47368421,5279.585172,1051.51768,-1396.423857,-318.8275671,280.0717289,2563.858803,-2318,-7940,-336,34,-12,479,62.58,70.76761677,59.88,66.35,0.018984375,0.007616767,0,0
302,-33,0.9,4,90.05847953,5076,2518,-2074,-74,923,2916,-2388,-7994,234,78,-16,447,62.58,70.82326744,59.88,66.35,0,0.055650675,0,0
302,-33,0.9,4,90.64327485,2656.221923,1243.710536,-2679.428247,243.2891449,1256.813819,2690,-2224,-7964,638,95,12,404,62.58,70.88528071,59.88,66.35,0,0.062013266,0,0
302,-33,0.9,4,91.22807018,380,-684,-3026,629,1418,2464,-2222.894855,-7985,466,129.7360789,1.069037657,390.9873272,62.58,70.93,59.88,66.35,0,0.044719292,0,0
302,-33,0.9,4,91.8128655,517.8102564,-2014.123869,-1850.617635,1125.960391,1181.031957,2798.482273,-2222,-8006,294,154,-13,386,62.61868468,70.88049804,59.83898438,66.50039063,0.03868468,-0.049501958,-0.041015625,0.150390625
302,-33,0.9,4,92.39766082,688,-2892,-106,1518,870,3402,-2201.490785,-7994.856064,476.6165821,150.2377596,-18.90051139,389.8888889,62.66473591,70.82049102,59.83329009,66.57,0.046051231,-0.060007025,-0.005694287,0.069609375
302,-33,0.9,4,92.98245614,728.4252991,-3176.223941,1111.617635,1651.865867,755.3192175,4092.743846,-2165.300948,-7968.601016,825.4553864,140.0310747,-23.28358903,397.1111111,62.69880143,70.77479431,59.9201732,66.57,0.034065516,-0.045696704,0.08688311,0
302,-33,0.9,4,93.56725146,770,-3384,1760,1748,667,4664,-2146,-7938,1042,125,-25,401,62.74713438,70.72060685,59.97521907,66.53746094,0.048332956,-0.054187467,0.055045872,-0.032539063
302,-33,0.9,4,94.15204678,936.6781135,-3699.362725,1231.551735,1842.368411,567.7288251,4869.197405,-2258,-7894.796106,1084.723012,83.74127722,-8.712343096,380,62.78,70.66484737,59.99965042,66.49,0.032865617,-0.055759475,0.024431349,-0.047460937
302,-33,0.9,4,94.73684211,1138,-3890,426,1949,487,5056,-2370,-7860,1102,27,21,359,62.78,70.60860658,59.96940184,66.49,0,-0.056240794,-0.030248577,0
302,-33,0.9,4,95.32163743,1279.069245,-3880.9375,-171.6789048,2123.280165,432.6417822,5426.532048,-1956,-7852,1022,-20,52,376,62.78461426,70.59,59.92746493,66.48354004,0.004614258,-0.018606576,-0.041936913,-0.006459961
302,-33,0.9,4,95.90643275,1412.172662,-3861,-766.1034709,2353.875237,386.8647525,5933.279555,-1677.394523,-7904,938.7099206,-53.35538278,47.5,449.0317625,62.83554199,70.59,59.8839222,66.42645996,0.050927734,0,-0.043542734,-0.057080078
302,-33,0.9,4,96.49122807,1511.189748,-3841.0625,-1221.976302,2597.782691,350.6553465,6455.887285,-1488,-7956,856,-79,43,551,62.88334886,70.56890677,59.88,66.47111463,0.047806866,-0.021093226,-0.003922195,0.044654671
302,-33,0.9,4,97.07602339,1550,-3832,-1404,2812,325,6874,-1392,-7908,778,-97,50,633,62.91,70.50298948,59.88,66.57578686,0.026651142,-0.065917296,0,0.10467223
302,-33,0.9,4,97.66081871,1270,-4018,-1162,2981,310,7148,-1678,-7736,628,-109,17,772,62.91,70.4053673,59.88,66.62786753,0,-0.09762218,0,0.052080672
302,-33,0.9,4,98.24561404,1517.001812,-4530.512354,-763.5595755,3001.404338,276.2256098,7411.038743,-1821.481481,-7736.204525,800.6666667,-138.3129401,27.72761513,851.8689766,62.91,70.29498715,59.870625,66.63236908,0,-0.110380147,-0.009375,0.004501543
302,-33,0.9,4,98.83040936,2010,-5282,-408,3008,252,7626,-1924.518519,-7736.853495,1121.333333,-185.6890865,51.7885636,912.640774,62.91,70.18472479,59.82257813,66.57975874,0,-0.110262366,-0.048046875,-0.052610337
302,-33,0.9,4,99.41520468,2658.720981,-6148.952869,-219.4893204,2850.530349,256.5,7787.775312,-1964,-7738,1294,-242,77,980,62.91,70.12103901,59.84502058,66.53446206,0,-0.063685778,0.022442451,-0.045296676
302,-33,0.9,4,100,3478,-7120,-132,2605,261,7869,-1778,-7807.353242,1288.379121,-317.0173305,100.7395725,1063.379751,62.91,70.09,59.88,66.49,0,-0.031039008,0.034979424,-0.044462062
302,-33,0.9,1,0,4412,-8110,-152,2445,183,7814,-1592,-7876,1270,-399,124,1161,62.86898438,70.09,59.83898438,66.43594861,-0.041015625,0,-0.041015625,-0.054051393
302,-33,0.9,1,0.564971751,5543.875455,-8193.237703,-239.6318654,2260.482708,-29.39631783,7746.051775,-1682,-7826,1012,-466,143,1288,62.85,70.09,59.82,66.42,-0.018984375,0,-0.018984375,-0.015948607
302,-33,0.9,1,1.129943503,6216,-8246,-420,2148,-324,7657,-1770,-7812,704,-491,152,1372,62.85,70.09,59.82,66.42,0,0,0,0
302,-33,0.9,1,1.694915254,6066.279336,-8322.229663,-955.7412664,2139.848214,-639.8989802,7517.270341,-1930,-7682,632,-523,171,1476,62.87201663,70.12647466,59.82,66.42,0.022016632,0.036474659,0,0
302,-33,0.9,1,2.259887006,5740,-8440,-1578,2137,-935,7334,-2070.393691,-7587.996653,690.5925926,-553.0851537,194.8282915,1549.976963,62.91270178,70.16963752,59.82,66.42,0.040685151,0.043162864,0,0
302,-33,0.9,1,2.824858757,5164,-8798,-1888,2201,-1134,7106,-2193.307957,-7511.553882,799.4074074,-583.4317902,221.7227682,1614.061868,62.94072511,70.13181863,59.82,66.42,0.028023329,-0.037818891,0,0
302,-33,0.9,1,3.389830508,4398,-9192,-1488,2324,-1332,6681,-2246,-7480,858,-621,249,1699,62.96534954,70.05153868,59.82,66.41019744,0.024624429,-0.080279956,0,-0.009802565
302,-33,0.9,1,3.95480226,3804,-9122,-1170,2272,-1381,6394,-2074,-7580,706,-678,276,1850,62.97910779,69.95695488,59.82,66.35577041,0.013758249,-0.094583794,0,-0.05442703
302,-33,0.9,1,4.519774011,3272.440387,-9472,-945.6555181,2155.277884,-1271.413127,5991.880052,-1898,-7316,598,-708,292,1948,62.98,69.84878809,59.7955957,66.35,0.000892211,-0.108166793,-0.024404297,-0.005770405
302,-33,0.9,1,5.084745763,2768.071035,-10242,-752.0243811,1977.102043,-994.6850066,5502.319592,-1898,-7606,326,-741,327,2080,62.9801781,69.75598395,59.76,66.35078613,0.000178099,-0.092804143,-0.035595703,0.000786133
302,-33,0.9,1,5.649717514,2306.666166,-11012,-594.8810536,1780.37518,-628.8643824,4968.349336,-1922.071267,-7599.442308,297.1707523,-752.4534884,315,2272.560336,62.99723998,69.72920469,59.76,66.40376465,0.017061877,-0.026779256,0,0.052978516
302,-33,0.9,1,6.214689266,1904,-11362,-480,1608,-252,4433,-1980,-7584,288,-757,303,2405,63.02712497,69.71374405,59.77131687,66.42,0.029884999,-0.015460637,0.011316872,0.016235352
302,-33,0.9,1,6.779661017,1584,-11162,-410,1473,180,3888,-2228.256331,-7525.879808,322.6875,-754.65625,318,2422.500539,63.04846123,69.69101489,59.81555556,66.42,0.021336251,-0.022729163,0.044238683,0
302,-33,0.9,1,7.344632768,1528,-10474,-428,1334,382,3575,-2695.968618,-7421.115385,399,-749.5,351,2431.729352,63.02152832,69.61729167,59.82,66.42,-0.026932905,-0.073723223,0.004444444,0
302,-33,0.9,1,7.90960452,1442.428675,-9800.437791,-498.6122449,1163.699948,603.1293206,3221.098921,-3170.696595,-7320.793269,475.3125,-744.34375,384,2439.093489,62.98,69.51352637,59.82,66.42078613,-0.04152832,-0.103765301,0,0.000786133
302,-33,0.9,1,8.474576271,1300,-9390,-556,985,730,2889,-3440,-7276,510,-742,399,2451,62.98,69.46285507,59.82,66.47376465,0,-0.050671295,0,0.052978516
302,-33,0.9,1,9.039548023,800.4525202,-9341.235561,-513,817.0181974,728.1262626,2630.612454,-3503.498377,-7292.074074,419.8370155,-751.5534796,395.6296296,2478.731873,62.98,69.41626119,59.83251781,66.49,0,-0.046593882,0.01251781,0.016235352
302,-33,0.9,1,9.604519774,288,-9294,-470,655,723,2410,-3541.367178,-7321.925926,223.4518088,-773.3291815,389.3703704,2513.143714,62.98,69.36960621,59.87770405,66.49,0,-0.046654981,0.045186241,0
302,-33,0.9,1,10.16949153,128.4892256,-8969.769906,-486.4354207,494.7517417,675.3737374,2231.877307,-3612,-7338,32,-797,386,2530,62.98,69.31972269,59.85,66.53,0,-0.049883513,-0.02770405,0.04
302,-33,0.9,1,10.73446328,20,-8542,-536,353,631,2047,-3971.577624,-7127,-151.9833091,-819.8614463,394.8601286,2528.879144,62.97759945,69.26981147,59.82,66.57,-0.002400549,-0.049911221,-0.03,0.04
302,-33,0.9,1,11.29943503,-76,-8294,-878,249,694,1782,-4464,-6916,-260,-846,419,2525,62.92814815,69.21445899,59.82,66.57,-0.049451303,-0.055352487,0,0
302,-33,0.9,1,11.86440678,-54,-8268.727804,-869.9527382,231.8167899,806.3269935,1528.856537,-4802,-7342,-230,-877,515,2366,62.91,69.2,59.82,66.5774375,-0.018148148,-0.014458986,0,0.0074375
302,-33,0.9,1,12.42937853,-10,-8250,-844,226,934,1314,-4632.343907,-8557.833779,392.988959,-853.5,703.129771,2323.030153,62.91,69.2,59.82,66.62984635,0,0,0,0.052408854
302,-33,0.9,1,12.99435028,50,-8202,-532,231,1038,1170,-4290,-9640,990,-830,833,2307,62.91,69.16,59.82,66.67988749,0,-0.04,0,0.050041135
302,-33,0.9,1,13.55932203,248.24,-8012.828971,-293.1956939,236.9432566,1152.88342,1051.559105,-3689.536759,-9922.468951,763.9259259,-867.5925926,820.2534996,2361.710568,62.90849317,69.12,59.82,66.72939343,-0.001506834,-0.04,0,0.049505939
302,-33,0.9,2,14.12429379,404,-7820,-118,242,1219,962,-2936.212824,-10107.56781,344.0740741,-937.4074074,789.0625548,2488.643359,62.87198719,69.12,59.82,66.77496596,-0.036505973,0,0,0.045572535
302,-33,0.9,2,14.68926554,336.8390957,-7750.186722,-28.59100462,245.359375,1194.926829,905.4773915,-2566,-10174,118,-975,750,2632,62.83020088,69.13669041,59.82,66.81875756,-0.041786313,0.016690413,0,0.0437916
302,-33,0.9,2,15.25423729,194,-7720,66,247,1135,867,-3529.802677,-9266.179373,196,-841.8421053,677.1314796,2831.242277,62.78830105,69.19693873,59.82,66.86150924,-0.041899826,0.060248321,0,0.042751681
302,-33,0.9,2,15.81920904,-114.8390957,-7751.288344,374.4371585,201.9585799,939.5731707,848.918588,-5220,-7596,274,-655,624,2964,62.73885203,69.2,59.82,66.90242008,-0.049449028,0.003061266,0,0.040910831
302,-33,0.9,2,16.38418079,-348,-7822,614,119,645,825,-6792,-5810,-188,-570,873,2798,62.71,69.20060547,59.82,66.94459814,-0.028852025,0.000605469,0,0.042178062
302,-33,0.9,2,16.94915254,-138,-7962,554,30,351,659,-5658.799083,-6133,-299.0935597,-590.5896226,1033.904305,2637.929907,62.71,69.24962891,59.82,66.99527272,0,0.049023438,0,0.050674586
302,-33,0.9,2,17.51412429,-152,-8416.357703,486.8316832,-33.5267481,163.0204923,370.0677059,-4252,-6456,-406,-615,1111,2550,62.71,69.31037109,59.82,67.04239484,0,0.060742187,0,0.047122114
302,-33,0.9,2,18.07909605,-166,-8898,448,-65,13,32,-3876,-6298,-790,-620,983,2646,62.71,69.35939453,59.82,67.08550345,0,0.049023438,0,0.043108609
302,-33,0.9,2,18.6440678,16.76817138,-9140.47678,635.3871734,-56.5,-115.944661,-301.803133,-4696.864219,-6020.280927,-1015.381194,-664.5378205,776.9299724,2660.255504,62.67735599,69.36,59.82,67.1327113,-0.032644006,0.000605469,0,0.047207857
302,-33,0.9,2,19.20903955,248,-9254,938,-48,-242,-574,-5542,-5608,-1120,-742,634,2665,62.65,69.35693873,59.82,67.17860574,-0.027355994,-0.003061266,0,0.045894436
302,-33,0.9,2,19.7740113,316,-8948,1158,-140,-393,-715,-5566.910076,-5003.469012,-613,-855.5737179,619.2710027,2547.5,62.65,69.29669041,59.82,67.21901282,0,-0.060248321,0,0.040407083
302,-33,0.9,2,20.33898305,185.8278547,-8880.173089,1058.770238,-249.9860335,-648.2854567,-904.0552712,-5592,-4060,-106,-932,614,2430,62.63539589,69.28,59.82,67.26259824,-0.014604112,-0.016690413,0,0.043585417
302,-33,0.9,2,20.9039548,-54,-8820,896,-315,-817,-1105,-5800,-2154,-122,-931,625,2516,62.58267861,69.28,59.82,67.31029875,-0.052717281,0,0,0.047700504
302,-33,0.9,2,21.46892655,-292.5314749,-8636.82378,783.3830741,-307.1842105,-814.7363074,-1290.157622,-6402.427756,-2249.915773,-572.6150281,-938.8891466,701.645582,2442.940257,62.58,69.25,59.85,67.36036661,-0.002678608,-0.03,0.03,0.05006786
302,-33,0.9,2,22.03389831,-565.9391812,-8327.211209,681.9358146,-285.1578947,-806.7968198,-1471.851936,-7220.769434,-2550.275991,-1381.307514,-961.6671822,833.9604553,2273.43607,62.57742188,69.18993685,59.88,67.40902048,-0.002578125,-0.06006315,0.03,0.048653876
302,-33,0.9,2,22.59887006,-868.8772968,-7954.493034,565.0206478,-251.0526316,-791.4589223,-1643.120283,-7632,-3074,-1814,-998,928,2082,62.529375,69.13935046,59.88,67.45090709,-0.048046875,-0.050586389,0,0.041886613
302,-33,0.9,2,23.16384181,-1196,-7582,406,-207,-767,-1797,-6030,-5996,-1644,-1120,959,1870,62.52,69.09593697,59.88,67.50511393,-0.009375,-0.04341349,0,0.054206831
302,-33,0.9,2,23.72881356,-1580,-7196,110,-105,-432,-1925,-4982.120918,-8174.142807,-1191.715805,-1217.93508,800.2912432,1976.132671,62.52,69.05276541,59.88,67.57557965,0,-0.043171557,0,0.070465727
302,-33,0.9,2,24.29378531,-2997.507618,-19982,-316.1716341,319.2018717,2032.696198,-2978.386694,-4478,-9642,-592,-1296,585,2160,62.485,68.92113817,59.88,67.64882414,-0.035,-0.131627249,0,0.073244491
302,-33,0.9,2,24.85875706,-5396,-32768,-584,817,4227,-4239,-4874,-10268,-44,-1349,499,2325,62.45,68.78650229,59.88,67.71102557,-0.035,-0.134635873,0,0.062201431
302,-33,0.9,2,25.42372881,-8910,-16610,6810,1055,3919,-4697,-5344.248526,-9729.202166,516.1028101,-1394.784884,564.9207709,2446.9473,62.45,68.74152358,59.88,67.76082382,0,-0.044978711,0,0.049798242
302,-33,0.9,2,25.98870056,-4375.493675,-4903.315141,2580,-244,4010.5,-4374.4625,-5832,-9032,830,-1419,687,2554,62.43285365,68.65792136,59.88,67.80902714,-0.017146346,-0.083602221,0,0.04820332
302,-33,0.9,2,26.55367232,1218,926,-1650,-1543,4102,-3965,-6376.233515,-8739.797834,342,-1353.5,818.3124104,2683.542051,62.39059841,68.56123532,59.88,67.85558,-0.042255241,-0.096686036,0,0.04655286
302,-33,0.9,2,27.11864407,3086.493675,-3484,-481,-790.1085656,1859,-3857.65819,-6732,-8606,-146,-1288,966,2759,62.42264401,68.56,59.91264401,67.89699043,0.032045593,-0.001235324,0.032644006,0.041410437
302,-33,0.9,2,27.68361582,3896,-7894,688,20,-384,-3737,-6805.976283,-9126.916927,-34.06047158,-1310.380965,1148.696567,2678.669241,62.45,68.55693873,59.94,67.93889335,0.027355994,-0.003061266,0.027355994,0.041902917
302,-33,0.9,2,28.24858757,1036,-6736,278,88,-90,-3227,-6852.099253,-10118.50052,186.3235013,-1361.206374,1336.01495,2509.671816,62.45,68.49669041,59.94,67.98578595,0,-0.060248321,0,0.0468926
302,-33,0.9,2,28.81355932,-7052.838669,-4398.883716,600,-512,685.7066944,-3265.026676,-6868,-10724,342,-1416,1422,2360,62.43909125,68.48,59.94,68.03285507,-0.010908749,-0.016690413,0,0.04706912
302,-33,0.9,2,29.37853107,-13194,-2772,922,-1112,1265,-3368,-5436,-10804,388,-1470,1368,2270,62.39313432,68.48,59.94,68.08352637,-0.045956932,0,0,0.050671295
302,-33,0.9,2,29.94350282,-6501.21875,-3672.552632,-635,-508.786892,956.6183099,-4224.973324,-5519.21549,-10269.27032,-6.882550336,-1449,1147.135925,2270,62.3687531,68.46539444,59.94,68.19640625,-0.024381218,-0.01460556,0,0.112879885
302,-33,0.9,2,30.50847458,2072,-5016,-2192,286,519,-5017,-5740,-9188,-512,-1414,882,2270,62.35016667,68.43097866,59.94,68.25,-0.01858643,-0.034415783,0,0.05359375
302,-33,0.9,2,31.07344633,5595.129629,-5892.284621,-1702.699911,652.8063265,284.0441098,-4574.425424,-7257.78451,-7695.615156,-644.4646407,-1388.1875,707.232,1960.363193,62.33005236,68.40324123,59.94,68.25,-0.020114312,-0.027737429,0,0
302,-33,0.9,2,31.63841808,8198.12037,-6654.042925,-388.5109331,932.6253854,93.84815696,-3606.739737,-8638,-5810,-804,-1358,618,1348,62.29601517,68.4,59.95714635,68.26398575,-0.034037187,-0.003241228,0.017146346,0.013985752
302,-33,0.9,2,32.20338983,9214,-7158,1520,1044,-55,-2654,-7430,-3744,-1734,-1309,621,540,62.2604477,68.4,59.99940159,68.31541122,-0.03556747,0,0.042255241,0.05142547
302,-33,0.9,2,32.76836158,4392,-7394,5906,683,-160,-1904,-6082,-2726,-2054,-1176,685,215,62.26,68.4,60,68.35787671,-0.000447702,0,0.000598412,0.042465491
302,-33,0.9,2,33.33333333,4544,-7598.147756,4021.198908,174.9479894,-128.8655462,-1427.2318,-6131.113425,-2594.008891,-2032.739309,-954.9443992,819.5287136,-75.29020251,62.26,68.4,60,68.41525243,0,0,0,0.05737572
302,-33,0.9,2,33.89830508,4696,-7786,1350,-142,-84,-1039,-6261.340274,-2534.647203,-1976.697926,-657.5578914,1023.096779,-352.5087559,62.26,68.4,60,68.52481752,0,0,0,0.109565085
302,-33,0.9,2,34.46327684,3970.829213,-7993.583078,-244.1989077,25,-60.60851435,-635.4888095,-6447.010411,-2501.081069,-1897.486889,-333.5991841,1254.400488,-614.4822081,62.26,68.4,60.01401541,68.6009375,0,0,0.014015408,0.076119982
302,-33,0.9,2,35.02824859,3118,-8132,-1052,192,-41,-334,-6662.453699,-2446.476624,-1806.717234,-32.82698453,1472.136131,-859.0371068,62.26,68.4,60.06,68.64,0,0,0.045984592,0.0390625
302,-33,0.9,2,35.59322034,2924.99385,-8171.38558,-69.40740741,179.3468835,-17.89796639,-189.050099,-6882,-2324,-1716,195,1635,-1084,62.29497942,68.4,60.10195915,68.64,0.034979424,0,0.041959152,0
302,-33,0.9,2,36.15819209,2806.198936,-8196.915012,1755.407407,147.3604336,4.162127916,-87.46384572,-7152,-1698,-1610,337,1734,-1277,62.32,68.4,60.12,68.64269336,0.025020576,0,0.018040848,0.002693358
302,-33,0.9,2,36.72316384,2686,-8206,2738,105,14,24,-3333,1260.912254,-1938.795145,585.0418398,1361.451529,-2230.886311,62.32,68.4,60.12,68.69984596,0,0,0,0.057152607
302,-33,0.9,2,37.28813559,2560.469555,-8100.244468,1963.872525,9.859756098,-18,178.6556518,486,3744,-2622,832,636,-3037,62.28972126,68.41621616,60.12,68.73767847,-0.030278739,0.016216162,0,0.037832503
302,-33,0.9,2,37.85310734,2390,-7948,874,-63,-50,325,-659,1832.024729,-3982.204855,958.4433206,-511.317186,-2222.5,62.19573886,68.47490595,60.12,68.75938654,-0.093982404,0.058689788,0,0.021708075
302,-33,0.9,2,38.4180791,1940,-7872,372,1,-29,425,-1804,-796,-4988,1098,-1340,-1408,62.14576528,68.52507384,60.12,68.78031165,-0.049973573,0.050167893,0,0.020925109
302,-33,0.9,2,38.98305085,1604,-7966,642,39,-10,416,-1084,-1922.666633,-2857.049509,1477.747671,-1392.634343,-1842.828428,62.13,68.57338496,60.12,68.81333556,-0.015765284,0.048311114,0,0.03302391
302,-33,0.9,2,39.5480226,1437.405898,-7981.66472,817.1667421,29.11023961,-6.135741935,393.6063365,-364,-2888,238,1892,-1411,-2591,62.13,68.61577641,60.12,68.87118157,0,0.042391451,0,0.057846013
302,-33,0.9,2,40.11299435,1324.063986,-7989.387917,976.3025849,5.250718826,-3.302709677,355.0408029,-2230,-4054,1832,2105,-1393,-3249,62.10999593,68.72631793,60.13216212,68.88,-0.020004071,0.110541524,0.012162122,0.008818426
302,-33,0.9,2,40.6779661,1230.819126,-7994.078753,1106.255057,-23.86392176,-1.401806452,303.7721011,-2114,-4648,1570,2320,-1102,-3533,62.06069815,68.87799715,60.17617946,68.88,-0.049297781,0.151679218,0.044017341,0
302,-33,0.9,2,41.24293785,1124.516177,-8000.646393,1193.871686,-49.51904156,-0.333935484,243.2689329,-2572.37037,-4254.962963,1006.696671,2539.055878,-602.2418356,-3926.005377,62.08628791,68.88,60.22186183,68.88,0.025589767,0.00200285,0.045682363,0
302,-33,0.9,2,41.8079096,972,-8014,1226,-63,0,177,-3423.62963,-3525.037037,300.1375281,2755.175515,6.227975502,-4376.354632,62.15687628,68.88,60.24,68.88,0.070588366,0,0.018138174,0
302,-33,0.9,2,42.37288136,704,-8058,1144,-66,-17,84,-3882,-3132,-80,2942,456,-4770,62.23843374,68.88,60.24,68.88,0.081557463,0,0,0
302,-33,0.9,2,42.93785311,658.4091392,-7977,1166.769231,-102.263369,1,-35.16008704,-3680.303849,-3219.655484,-121.7545626,3101.31632,731.0987426,-5084.787328,62.32132659,68.77245542,60.28032922,68.88,0.082892851,-0.107544582,0.040329218,0
302,-33,0.9,2,43.50282486,612,-7896,1218,-136,19,-179,-3209.143597,-3441.914623,-141.1445892,3247.619579,970.6433267,-5371.072038,62.38919486,68.56285322,60.35893004,68.88,0.067868265,-0.209602195,0.078600823,0
302,-33,0.9,2,44.06779661,312,-7970,1318,-119,-31,-363,-2669.411546,-3737.716451,-160.4623212,3373.613049,1139.866248,-5623.570729,62.35931273,68.70238281,60.36,68.85078888,-0.029882129,0.139529589,0.001069959,-0.029211119
302,-33,0.9,2,44.63276836,403.0214457,-7963.452869,1319.547233,-125.9630574,-38.08391854,-542.1550145,-2262,-4046,-202,3472,1204,-5837,62.30343907,68.79254696,60.36,68.78195731,-0.055873657,0.090164145,0,-0.068831566
302,-33,0.9,2,45.19774011,633.7238551,-7946.540984,1319.996233,-143.9848197,-42.71348315,-721.829633,-1993.035894,-4398.874408,-409.2238138,3553.437862,1067.519768,-6023.947572,62.23140149,68.69014553,60.36,68.72648246,-0.072037588,-0.102401425,0,-0.055474859
302,-33,0.9,2,45.76271186,940.564337,-7923.358607,1320.447117,-168.7641722,-45.23630618,-873.339435,-1826,-4810,-738,3598,793,-6151,62.16142973,68.55034533,60.36,68.72,-0.069971751,-0.139800206,0,-0.006482455
302,-33,0.9,2,46.32768362,1260,-7898,1322,-196,-46,-968,-1766.392308,-5246.044552,-1162.795786,3604.6,420.2734399,-6216.085784,62.13,68.48,60.36,68.72,-0.031429735,-0.070345327,0,0
302,-33,0.9,2,46.89265537,1636,-7864,1448,-233,-33,-1008,-1742,-5698,-1436,3607,-48,-6245,62.13,68.5346875,60.31898438,68.72,0,0.0546875,-0.041015625,0
302,-33,0.9,2,47.45762712,1583.052469,-7884,1524.25,-307.3626246,-90.5,-1029.218612,-1804.416667,-6151.902138,-1412.755725,3577.921552,-581.9896568,-6223.5,62.13,68.53980796,60.3,68.72,0,0.005120456,-0.018984375,0
302,-33,0.9,2,48.02259887,1490,-7904,1560,-381,-148,-1055,-1956,-6580,-1352,3518,-1099,-6202,62.13,68.42019204,60.3,68.72,0,-0.119615912,0,0
302,-33,0.9,3,48.58757062,1380.947531,-7854.819149,1387.300699,-425.5907282,-120.1877729,-1166.060227,-2404.902167,-6944.21199,-1050.798962,3432.087466,-1543.107402,-6204.347826,62.13,68.450625,60.3,68.72,0,0.030432956,0,0
302,-33,0.9,3,49.15254237,1312,-7766,1056,-448,-82,-1307,-3026,-7282,-650,3317,-1836,-6210,62.13,68.56,60.3,68.72,0,0.109375,0,0
302,-33,0.9,3,49.71751412,2024,-7676,656,-449,-66,-1392,-3616.821448,-7606.745066,-401.6248338,3174.147286,-1948.19615,-6224.040174,62.11461196,68.56,60.30624,68.70263162,-0.01538804,0,0.00624,-0.01736838
302,-33,0.9,3,50.28248588,1964.257271,-7631.538462,863,-458.4698657,-108.5,-1418.534257,-4048,-7934,-200,3019,-1995,-6248,62.08403066,68.56,60.32112,68.65829486,-0.030581295,0,0.01488,-0.04433676
302,-33,0.9,3,50.84745763,1828,-7612,1070,-470,-151,-1446,-4186.504927,-8278.766916,-40.41092241,2877.716929,-1838.727839,-6298.112,62.06163035,68.56,60.33888,68.59864229,-0.022400312,0,0.01776,-0.05965257
302,-33,0.9,3,51.41242938,1440.742729,-7689,899.1349558,-475.4482759,-140.0344828,-1562.607916,-4302,-8658,102,2738,-1529,-6335,62.06,68.73713006,60.35376,68.53532648,-0.001630353,0.177130063,0.01488,-0.06331581
302,-33,0.9,3,51.97740113,1130,-7766,696,-478,-127,-1729,-4548.35479,-9140.035694,242.2317321,2593.48963,-1100.6694,-6321.098229,62.06,69.04,60.36,68.48,0,0.302869937,0.00624,-0.05532648
302,-33,0.9,3,52.54237288,1329,-7695,640.8650442,-437.5,-123.4655172,-1876.666485,-4716,-9614,386,2453,-630,-6285,62.09466553,68.96253802,60.36,68.43322425,0.034665532,-0.077461984,0,-0.046775745
302,-33,0.9,3,53.10734463,1528,-7624,618,-397,-122,-2026,-4514,-9962,550,2326,-275,-6168,62.14330724,68.84895962,60.36,68.38507801,0.048641713,-0.113578391,0,-0.048146249
302,-33,0.9,3,53.67231638,1468,-7651,938,-419,-147.2116331,-2178.382,-3921.269051,-10365.75659,808.6693783,2180.3726,100.3753067,-5976.32763,62.186256,68.74305371,60.36,68.33411903,0.042948754,-0.105905916,0,-0.050958978
302,-33,0.9,3,54.23728814,1408,-7678,1258,-441,-183,-2322,-3242,-10702,976,2063,411,-5755,62.1741346,68.68053736,60.38214126,68.29066602,-0.012121395,-0.062516348,0.022141258,-0.043453011
302,-33,0.9,3,54.80225989,1535.880179,-7617.721519,1069.777778,-439.4028607,-204.5867264,-2447.16892,-2814.023862,-10916.60491,895,2011.991284,582.7363385,-5549.232714,62.13,68.64,60.42,68.25,-0.044134603,-0.040537361,0.037858742,-0.040666018
302,-33,0.9,3,55.36723164,1831.315914,-7497.443038,720.2222222,-434.9168324,-222.5155854,-2562.079009,-2514,-11020,814,1963,735,-5351,62.08344166,68.60631979,60.42,68.20674273,-0.046558336,-0.033680205,0,-0.043257273
302,-33,0.9,3,55.93220339,2162,-7408,532,-428,-230,-2668,-2360,-10190,826,1866,935,-5171,62.03313986,68.57718057,60.41860255,68.14932847,-0.050301803,-0.02913922,-0.001397446,-0.057414252
302,-33,0.9,3,56.49717514,2520,-7376,596,-408,-201,-2762,-1857.787719,-9754.8238,634,1788.372154,1025.257671,-4960.359482,62.00211008,68.56104183,60.39940229,68.05422748,-0.031029785,-0.01613874,-0.019200267,-0.095100999
302,-33,0.9,3,57.06214689,3541.514572,-7171.294118,345,-363.1422018,-171.5032468,-2746.520755,-1168,-9560,442,1721,1105,-4717,62,68.56,60.37318975,67.94597872,-0.002110077,-0.001041834,-0.026212539,-0.108248758
302,-33,0.9,3,57.62711864,4466,-6992,94,-331,-155,-2706,-528.6344028,-9697,596,1656.372324,1253.023962,-4421.508909,62,68.56,60.36,67.86,0,0,-0.013189749,-0.085978718
302,-33,0.9,3,58.1920904,4721.949696,-7032,642.5067843,-337.5956624,-198.2423313,-2474.397069,60,-9834,750,1607,1372,-4088,62,68.6459375,60.36,67.81173314,0,0.0859375,0,-0.04826686
302,-33,0.9,3,58.75706215,4826,-7072,1560,-358,-282,-2232,500,-9494,690,1582,1402,-3725,61.9890625,68.76284954,60.350625,67.74873627,-0.0109375,0.116912044,-0.009375,-0.062996873
302,-33,0.9,3,59.3220339,3608,-7038,2302,-527,-386,-2186,429.0956522,-9581.505618,733,1512.739692,1570.709945,-3367.315712,61.93300781,68.86581782,60.30257813,67.64899936,-0.056054688,0.102968275,-0.048046875,-0.099736905
302,-33,0.9,3,59.88700565,2540,-7226,1816,-713,-448,-2320,284,-9670,776,1402,1716,-2975,61.93,68.91936461,60.3,67.5587697,-0.003007812,0.053546788,-0.002578125,-0.090229659
302,-33,0.9,3,60.4519774,2191.491204,-7197.481481,1438.937525,-775.964274,-471.6184739,-2525.166715,49.68498726,-9671.494382,727.2372881,1252.911675,1705.909141,-2501.097473,61.93,68.96,60.3,67.47,0,0.040635393,0,-0.088769703
302,-33,0.9,3,61.01694915,1968.52338,-7144.518519,1098.198979,-816.5932481,-487.3092369,-2770.805239,-190,-9672,608,1044,1674,-1925,61.93,69.02131279,60.25898438,67.37593488,0,0.061312789,-0.041015625,-0.094065121
302,-33,0.9,3,61.5819209,1890,-7116,670,-831,-493,-2983,-316,-9232,300,716,1357,-1144,61.93283607,69.04,60.24,67.28426839,0.002836074,0.018687211,-0.018984375,-0.091666493
302,-33,0.9,3,62.14689266,3818,-7162,-10,-757,-386,-3130,-129.659306,-8993.754286,55.56328234,410.6021952,975.223933,-472.108554,61.95710632,69.04,60.24,67.19690248,0.024270251,0,0,-0.087365911
302,-33,0.9,3,62.71186441,5506,-6724,-374,-674,-381,-3057,124,-8886,-70,123,606,99,61.98722014,69.04,60.2155957,67.10451346,0.03011381,0,-0.024404297,-0.092389019
302,-33,0.9,3,63.27683616,5733.395098,-6791,173,-650.7475728,-467.675995,-2737.036856,254.659306,-8965,71,-170.6385628,301.0934649,569.5291106,62,69.04,60.18,67.01093716,0.012779865,0,-0.035595703,-0.093576299
302,-33,0.9,3,63.84180791,5808,-6858,720,-642,-604,-2467,318,-9044,212,-399,62,934,62,69.04,60.18,66.92257099,0,0,0,-0.088366169
302,-33,0.9,3,64.40677966,5199.998351,-6784,664,-770,-695.8866791,-2459.541667,160,-8760,128,-508,-84,1164,62.00558721,69.04,60.18,66.83490033,0.005587215,0,0,-0.087670662
302,-33,0.9,3,64.97175141,4214,-6710,608,-898,-783,-2457,114.3431816,-7891.337818,106.1021898,-605.3518145,-250.3049879,1390.649249,62.0470962,69.04,60.18,66.74702026,0.041508982,0,0,-0.087880062
302,-33,0.9,3,65.53672316,3306.001649,-9039,1112,-830.5,-895.4373259,-2508.375704,66,-7074,98,-687,-424,1584,62.09713438,68.94238281,60.18,66.65451346,0.050038187,-0.097617188,0,-0.092506807
302,-33,0.9,3,66.10169492,2776,-11368,1616,-763,-963,-2631,-142,-6876,114,-744,-595,1711,62.13,68.8,60.17959699,66.56075952,0.032865617,-0.142382812,-0.000403012,-0.093753936
302,-33,0.9,3,66.66666667,3086,-7860,1452,-807,-796,-2922,-90,-6915.447273,74,-730.3427673,-753.273031,1772.907084,62.13,68.8,60.14601262,66.46451074,0,0,-0.033584368,-0.096248781
302,-33,0.9,3,67.23163842,5059.01001,-5717.534122,-314.5066696,-723.3710526,-800.9447115,-2903.611037,-38,-7004,34,-701,-881,1800,62.13,68.8,60.10334215,66.40119803,0,0,-0.042670466,-0.06331271
302,-33,0.9,3,67.79661017,6786,-4710,-1944,-593,-813,-2859,-273.1154529,-7192.174137,216.6870229,-647.5858041,-977.5545244,1777.055024,62.13,68.8,60.06340729,66.36501049,0,0,-0.039934867,-0.036187535
302,-33,0.9,3,68.36158192,6182.422314,-4934.127251,-1367.971025,-486.6289474,-860.0552885,-2689.388963,-648,-7426,530,-585,-1026,1731,62.10152832,68.85401289,60.06,66.27626569,-0.02847168,0.054012888,-0.003407287,-0.088744807
302,-33,0.9,3,68.92655367,5192,-5384,-420,-427,-900,-2546,-950.6131002,-7591.341629,828.8235034,-529.0714286,-950.8197429,1660.694976,62.06,68.96621927,60.05940159,66.2,-0.04152832,0.11220638,-0.000598412,-0.076265687
302,-33,0.9,3,69.49152542,4436,-6004,310,-467,-895,-2623,-1164,-7770,1082,-498,-799,1591,62.06,69.0137561,60.01714635,66.2,0,0.047536833,-0.042255241,0
302,-33,0.9,3,70.05649718,4687.57929,-7082.8,301.1643836,-444.2498203,-853.9593023,-2756.909542,-1232,-8042,1212,-499,-586,1556,62.0709375,69.06341243,60,66.2,0.0109375,0.049656331,-0.017146346,0
302,-33,0.9,3,70.62146893,5158,-7802,280,-416,-817,-2858,-1446.816626,-8234.743363,1104.10793,-460.8283582,-275.7591714,1620.658781,62.12699219,69.11762343,60,66.2,0.056054688,0.054211,0,0
302,-33,0.9,3,71.18644068,5802.081263,-7071.925926,196.4485033,-405.9262454,-872.9146716,-2879.611028,-1614,-8330,920,-389,137,1746,62.13,69.09603094,60,66.2,0.003007812,-0.021592492,0,0
302,-33,0.9,3,71.75141243,6539.707298,-5716.074074,67.11314054,-398.7409005,-1001.273788,-2893.249958,-1604,-7690,762,-307,742,1902,62.13038188,69.03284619,60,66.2,0.000381875,-0.063184748,0,0
302,-33,0.9,3,72.31638418,6892,-4986,0,-396,-1143,-2898,251.4806348,-12923,4695.450593,558.7017055,-3208.5,2182.844096,62.16302828,68.91712599,60,66.2,0.032646403,-0.115720198,0,0
302,-33,0.9,3,72.88135593,6640,-5648.552432,132.9060403,-425.2227113,-1328.679328,-2791.5,2098,-18156,9160,1356,-7159,2543,62.20973771,68.88,60,66.2,0.046709429,-0.037125992,0,0
302,-33,0.9,3,73.44632768,6268,-6856,276,-485,-1450,-2685,-477,-17101.17472,10033.54941,1069.539887,-5884.194311,3006.088081,62.25784776,68.88,60,66.2,0.048110056,0,0,0
302,-33,0.9,3,74.01129944,6042.839858,-8214.569965,292.0939597,-569.2533526,-1416.353012,-2688.961466,-3052,-14976,10376,547,-4377,3368,62.26,68.80705068,60,66.2,0.002152237,-0.072949318,0,0
302,-33,0.9,4,74.57627119,5878,-9468,298,-680,-1343,-2700,1177,-12232.28258,8228.753775,7.78104947,-4118.211648,3505.593536,62.26,68.72,60,66.20078613,0,-0.087050682,0,0.000786133
302,-33,0.9,4,75.14124294,5762.160142,-10350.8776,-119,-806.768866,-1202.39053,-2829.038534,5406,-8426,4744,-587,-3819,3564,62.26,68.72,60,66.25376465,0,0,0,0.052978516
302,-33,0.9,4,75.70621469,5706,-10794,-536,-955,-1035,-2951,-228,-2798,2172,-1184,-1502,3444,62.26,68.73036331,60.01131687,66.27,0,0.010363306,0.011316872,0.016235352
302,-33,0.9,4,76.27118644,5890,-10721.67655,-134,-1177.25507,-917.422516,-2778.982633,-2256,-32294,8420,-638,1147,2461,62.26,68.78425883,60.05555556,66.27,0,0.053895526,0.044238683,0
302,-33,0.9,4,76.83615819,6074,-10548,268,-1321,-801,-2521,7554,-3776,5790,-429,1724,647,62.26,68.84297389,60.06,66.27,0,0.058715061,0.004444444,0
302,-33,0.9,4,77.40112994,6072.125,-9962.171671,87.51580973,-1320.471983,-643.2710807,-2376.82455,5917.827155,-4269.246402,-1302.95904,-780,1060.689861,1541.288289,62.26044394,68.88,60.06,66.27,0.000443942,0.037026108,0,0
302,-33,0.9,4,77.96610169,6068,-8832.830652,-318.791174,-1318.758621,-460.053782,-2262.629333,3256,-5160,-6628,-1131,190,2598,62.29681193,68.88,60.06,66.27,0.036367987,0,0,0
302,-33,0.9,4,78.53107345,6063.875,-7494.074306,-748.2025708,-1315.665948,-294.3095924,-2140.11945,969.4002174,-6242.480609,-4941.271896,-942.7777778,-205.8930859,2885.746746,62.34164723,68.93300489,60.06,66.27,0.044835296,0.053004891,0,0
302,-33,0.9,4,79.0960452,6062,-6280,-998,-1311,-189,-1971,-1249.660486,-7433.618291,-1665.654903,-593.2222222,-506.6132096,3079.817818,62.38403883,69.16711979,60.06,66.27,0.042391608,0.234114902,0,0
302,-33,0.9,4,79.66101695,6721,-4999.908125,-1080.104413,-1169.853248,-132.8070506,-1670.028941,-2594,-8034,522,-405,-626,3151,62.41094989,69.2991688,60.03,66.27,0.026911054,0.132049008,-0.03,0
302,-33,0.9,4,80.2259887,7380,-4240,-1116,-991,-107,-1294,-3174.1118,-8094.9775,1202.840088,-413.037037,-376.3333333,2830.159362,62.43386528,69.40377251,60,66.27,0.022915389,0.104603713,-0.03,0
302,-33,0.9,4,80.79096045,7362,-4252,-1074,-933,-130,-924,-3583.167011,-8132.933194,1680.086711,-427.962963,87.33333333,2190.207613,62.44797651,69.48670956,60,66.27,0.014111234,0.08293705,0,0
302,-33,0.9,4,81.3559322,6830.820416,-4382.669121,-1146,-858.2024314,-153.5432824,-533.0708365,-3738,-8146,1860,-436,337,1715,62.45,69.54687988,60,66.28669041,0.00202349,0.060170311,0,0.016690413
302,-33,0.9,4,81.92090395,6186,-4594,-1218,-775,-180,-165,-3179,-8132.846154,544,-381.5076923,194.3099747,1541.831309,62.45,69.59065555,60,66.34693873,0,0.043775673,0,0.060248321
302,-33,0.9,4,82.48587571,5955.27321,-4822.876797,-1008.075718,-692.1690393,-207.7724148,122.2483458,-2620,-8110,-772,-275,20,1396,62.45,69.64,60,66.31,0,0.049344452,0,-0.036938734
302,-33,0.9,4,83.05084746,5854,-4982,-626,-602,-253,414,-2959.501436,-8092.933797,-92.29796772,-101.9923077,-35.30997475,1217.180881,62.45267861,69.68957865,60,66.27,0.002678608,0.049578651,0,-0.04
302,-33,0.9,4,83.61581921,5896,-5008,-230,-494,-421,803,-3390,-8068,1054,19,-59,999,62.50539589,69.73593051,60,66.27,0.052717281,0.046351862,0,0
302,-33,0.9,4,84.18079096,5969.187104,-4150.414155,-77.64150958,-433.0987776,-576.3740239,1192.907417,-3518,-7992,2004,-47,24,667,62.52,69.78522095,59.98748219,66.27,0.014604112,0.049290436,-0.01251781,0
302,-33,0.9,4,84.74576271,6018,-2510,62,-365,-703,1600,-2966.522907,-8014,1292,-49.32044199,59.86371055,441.9979191,62.52,69.83863643,59.94229595,66.27,0,0.053415482,-0.045186241,0
302,-33,0.9,4,85.31073446,5580,-546,344,-200,-781,2054,-2364,-8036,580,-50,75,305,62.52926417,69.8987282,59.94,66.27,0.009264167,0.060091771,-0.00229595,0
302,-33,0.9,4,85.87570621,5399.134372,2237.536993,-674,-121.1644387,-306.3356504,2569.984515,-2282.477093,-7959,740.3915609,-7.11E-15,15.5,260.1165775,62.55973956,69.96519421,59.94,66.27048856,0.030475397,0.066466009,0,0.000488565
302,-33,0.9,4,86.44067797,5192,3978,-1692,-37,351,2925,-2252,-7882,1078,50,-44,224,62.59883382,70.03419442,59.94,66.2853271,0.039094255,0.069000214,0,0.014838538
302,-33,0.9,4,87.00564972,3588.820033,2449.379309,-1644.822953,198.7970475,715.5967119,3004.494576,-2396,-7982,1614,32,-12,166,62.63328715,70.10183007,59.94,66.31391584,0.034453332,0.067635642,0,0.028588735
302,-33,0.9,4,87.57062147,960.8544612,-634.3524934,-1505.645905,556.7946757,1009.965023,3046.889638,-2169.493333,-7938,1585.032,-35.5530504,46.99134487,93.5,62.64983978,70.16420236,59.94,66.34683297,0.016552627,0.062372293,0,0.032917127
302,-33,0.9,4,88.13559322,-420,-3020,-1278,885,1131,3129,-1900,-7894,1512,-90,87,50,62.65,70.23042728,59.94,66.38174983,0.000160222,0.066224919,0,0.034916868
302,-33,0.9,4,88.70056497,-141.4973262,-4264.385056,496.6758217,1183.661219,950.0633075,3607.381201,-1826.506667,-7941,1165.968,-84.29878049,55,61.76428571,62.65,70.26,59.94,66.43448291,0,0.029572724,0,0.052733078
302,-33,0.9,4,89.26553672,324,-4866,2136,1351,761,4222,-1796,-7988,864,-73,23,77,62.65,70.26,59.94,66.54453417,0,0,0,0.110051255
302,-33,0.9,4,89.83050847,693.3085063,-4693.778677,2127.381557,1279,751.971346,4549.370602,-1874,-7908,1060,-58,23,82,62.66391602,70.24773035,59.95391602,66.57,0.013916016,-0.012269651,0.013916016,0.025465833
302,-33,0.9,4,90.39548023,1076,-4354,2102,1207,744,4853,-1717.792711,-7935,1250.703201,-73.61422414,56.5,94.45813492,62.70932617,70.17805068,59.99932617,66.57,0.045410156,-0.069679666,0.045410156,0
302,-33,0.9,4,90.96045198,1605.18882,-3785.221323,1097.46001,1245.318623,713.3248872,5248.982029,-1452,-7962,1360,-103,90,119,62.71,70.03993814,60,66.57,0.000673828,-0.138112544,0.000673828,0
302,-33,0.9,4,91.52542373,1934,-3384,-304,1336,660,5652,-1169.207289,-7961.547619,1367.419355,-140.0938504,86.34183673,207.8677136,62.71300781,69.91530902,59.99742188,66.57,0.003007812,-0.124629119,-0.002578125,0
302,-33,0.9,4,92.09039548,1778,-3580,-966,1545,571,5996,-996,-7960,1370,-174,78,334,62.7690625,69.85698809,59.949375,66.57,0.056054688,-0.058320929,-0.048046875,0
302,-33,0.9,4,92.65536723,1655.908146,-3588.376791,-900.4991883,1819.226908,447.0578043,6419.389539,-1012,-7914,1176,-190,61,439,62.78,69.85,59.94,66.58814815,0.0109375,-0.006988092,-0.009375,0.018148148
302,-33,0.9,4,93.22033898,1534,-3596,-744,2063,370,6842,-1201.995174,-7917,1248,-199.4960578,36.44642857,557.7796501,62.78,69.85,59.94,66.63759945,0,0,0,0.049451303
302,-33,0.9,4,93.78531073,1339.390071,-3831.982045,-238.2380489,2228.926893,370.4414008,7195.736745,-1448,-7920,1320,-212,21,670,62.78,69.8194,59.91,66.64,0,-0.0306,-0.03,0.002400549
302,-33,0.9,4,94.35028249,1214,-4252,266,2311,372,7511,-1556,-7812,1276,-261,92,755,62.78,69.74350511,59.88,66.64,0,-0.075894891,-0.03,0
302,-33,0.9,4,94.91525424,1292,-4696,384,2308,551,7783,-1360.636095,-7831,1264.977051,-296.5409386,102.5054859,859.3227562,62.78,69.63405255,59.88,66.64,0,-0.109452555,0,0
302,-33,0.9,4,95.48022599,1464.583677,-5181.087371,111.4585219,2281.151502,835.6557005,7953.097246,-1160,-7850,1252,-322,106,974,62.79639862,69.56100202,59.88,66.6628618,0.016398622,-0.073050536,0,0.022861795
302,-33,0.9,4,96.04519774,1688,-5652,-326,2228,1196,8053,-1154,-7848,1130,-336,66,1094,62.84697106,69.52044226,59.88,66.71920212,0.050572435,-0.040559754,0,0.056340322
302,-33,0.9,4,96.61016949,1891.690629,-6032.320493,-712.9318043,2141.236453,1638.650729,8093.266055,-1542,-7794,1188,-368,53,1233,62.87347979,69.52,59.88,66.68663805,0.026508729,-0.000442265,0,-0.032564072
302,-33,0.9,4,97.17514124,2128,-6434,-942,2021,2089,8110,-1541.38037,-7786.363293,1294.118519,-421.6017514,81.77927422,1321.348934,62.89576396,69.52,59.88,66.63005142,0.022284175,0,0,-0.056586623
302,-33,0.9,4,97.74011299,2468,-7002,-950,1872,2443,8109,-1539.427406,-7783.034278,1418.281481,-488.3581314,139.2252151,1392.698914,62.9086902,69.52,59.88,66.57753794,0.012926238,0,0,-0.052513481
302,-33,0.9,4,98.30508475,2849.68554,-7783.612296,-833.8659502,1726.267324,2849.194807,8057.97606,-1536,-7776,1478,-546,182,1482,62.91,69.5428618,59.86285365,66.57,0.001309801,0.022861795,-0.017146346,-0.007537942
302,-33,0.9,4,98.8700565,3318,-8690,-568,1581,3086,7947,-1413.613751,-7725.849265,1308,-584.859836,198.2527808,1620.085473,62.91,69.59920212,59.82059841,66.57,0,0.056340322,-0.042255241,0
302,-33,0.9,4,99.43502825,4043.608554,-9760.033853,21.6381997,1443.397357,3058.036968,7736.902549,-1276,-7654,1138,-622,211,1789,62.91,69.56695876,59.82,66.57,0,-0.032243356,-0.000598412,0
302,-33,0.9,4,100,4848,-10684,818,1286,2985,7458,-1247.333333,-7590.261261,1205,-666.5158359,227.9955357,1976.61313,62.91,69.49629986,59.82,66.57,0,-0.070658896,0,0
302,-33,0.9,1,0,5675.998589,-11223.08775,1707.278445,1064.234808,2688.506194,7205.807322,-1236,-7554,1272,-717,238,2178,62.91,69.39239683,59.82,66.57,0,-0.103903038,0,0
302,-33,0.9,1,0.621118012,6152,-11588,2286,782,2146,6906,-1616,-7564,1266,-778,222,2381,62.93000407,69.3301775,59.82,66.57,0.020004071,-0.062219329,0,0
302,-33,0.9,1,1.242236025,5886,-11796,2340,410,1302,6447,-1903.208109,-7480.489796,1612,-867.5880496,287.9592014,2470.139613,62.97930185,69.2861404,59.82,66.57,0.049297781,-0.044037097,0,0
302,-33,0.9,1,1.863354037,5470.222703,-12020.11215,1881.892968,175.4611135,467.5077655,5904.064645,-2112,-7388,1958,-971,389,2541,62.98,69.18823962,59.82,66.52253906,0.000698148,-0.097900779,0,-0.047460937
302,-33,0.9,1,2.48447205,4990,-12148,1244,64,-288,5357,-2257.617978,-7378.165376,1523.743119,-1086.313864,452.7118512,2630.882619,62.98,69.10313677,59.82,66.49659475,0,-0.085102852,0,-0.025944314
302,-33,0.9,1,3.105590062,4532,-11932,962,77,-874,4885,-2328,-7368,992,-1181,510,2718,62.98,69.06160477,59.82,66.55879707,0,-0.041532,0,0.06220232
302,-33,0.9,1,3.726708075,3652,-10490,826,13,-1583,4162,-2280,-7308,860,-1225,565,2790,62.98,68.98757083,59.82,66.57,0,-0.074033937,0,0.011202931
302,-33,0.9,1,4.347826087,2951.538795,-9451.06972,622.8323543,14.14524091,-1991.53093,3627.802217,-2306.814935,-7252.393271,941,-1298.555094,584.7288468,2952.431507,62.98,68.88,59.82,66.57,0,-0.107570833,0,0
302,-33,0.9,1,4.968944099,2324.473308,-8586.356053,356.917553,18.1793707,-2298.336663,3170.287024,-2376,-7190,1022,-1347,602,3069,62.98,68.79137469,59.85497942,66.57,0,-0.088625312,0.034979424,0
302,-33,0.9,1,5.590062112,1654,-7874,32,26,-2451,2705,-2939.958634,-7079.203932,754.4444444,-1335.851852,636.1935242,3050.851852,62.98,68.70088409,59.87742188,66.57,0,-0.090490595,0.022442451,0
302,-33,0.9,1,6.211180124,868,-7332,-432,183,-2488,2199,-3898.534873,-6950.04641,257.5555556,-1315.148148,679.6835286,3017.148148,62.98,68.60043303,59.829375,66.57,0,-0.100451068,-0.048046875,0
302,-33,0.9,1,6.832298137,422.0661553,-7442.3329,-399.3593074,338.6660584,-2388.380499,1801.690887,-4406,-6888,-10,-1304,717,2999,62.98,68.49497035,59.82,66.58577427,0,-0.105462679,-0.009375,0.015774265
302,-33,0.9,1,7.453416149,168,-7690,-316,425,-2193,1429,-3769,-7082.016442,189,-1327.058824,748.2682584,3010.477153,62.98,68.4,59.82,66.64,0,-0.094970347,0,0.054225735
302,-33,0.9,1,8.074534161,63.45754717,-8348.6671,113.3593074,422.4069704,-1931.473995,1003.975997,-3132,-7358,388,-1360,765,3036,62.93583147,68.33863086,59.82,66.68752516,-0.044168532,-0.061369137,0,0.047525157
302,-33,0.9,1,8.695652174,20,-8870,492,414,-1647,619,-3408,-7490,76,-1376,731,3084,62.91,68.32826542,59.82,66.73279178,-0.025831468,-0.010365445,0,0.04526662
302,-33,0.9,1,9.316770186,186,-8682,432,307,-1432,352,-4033.179714,-7051,185,-1431.497076,756.5893761,3074.731383,62.91,68.43117606,59.82,66.77308488,0,0.102910645,0,0.0402931
302,-33,0.9,1,9.937888199,171.896648,-8500.064516,387.601128,191.330627,-1246.764592,88.0653465,-4862,-6612,294,-1480,820,3050,62.89285365,68.57695746,59.82,66.81768442,-0.017146346,0.145781396,0,0.044599545
302,-33,0.9,1,10.55900621,132,-8400,342,80,-1117,-164,-5920.086587,-7195.837897,244,-1487.280702,1090.910624,2908.332959,62.85059841,68.71823163,59.82,66.86543012,-0.042255241,0.141274171,0,0.047745695
302,-33,0.9,1,11.18012422,-58,-8548,276,-13,-1065,-390,-6584,-8566,194,-1490,1324,2708,62.85,68.72,59.82,66.90900074,-0.000598412,0.00176837,0,0.043570627
302,-33,0.9,1,11.80124224,2,-8630,284,-26,-1057,-476,-3922,-11636,844,-1453,1219,2574,62.84547955,68.71261719,59.82,66.95455897,-0.004520447,-0.007382812,0,0.045558225
302,-33,0.9,1,12.42236025,22,-8504,388,-36,-1071,-543,-2232,-10682,1152,-1548,1097,2667,62.79486452,68.64738281,59.82,67.0057972,-0.050615031,-0.065234375,0,0.051238228
302,-33,0.9,1,13.04347826,8,-8338,392,-41,-1069,-589,-3195.33397,-9462.264323,871.9988207,-1451.037037,958.9227162,2805.942529,62.74388962,68.64,59.82,67.04933398,-0.050974904,-0.007382812,0,0.043536786
302,-33,0.9,1,13.66459627,-35.4134322,-8345.433277,395.0623949,-40.92592593,-1042.576295,-663.0635808,-4984.890163,-8165.80419,295.1087525,-1270.962963,825.0724692,2956.471264,62.71,68.64,59.82,67.09,-0.033889618,0,0,0.040666018
302,-33,0.9,1,14.28571429,-116.9426552,-8367.208707,397.1337408,-40.74074074,-975.7645314,-761.8280251,-5950,-7268,-184,-1174,765,3027,62.71,68.64,59.82,67.13694627,0,0,0,0.046946266
302,-33,0.9,1,14.9068323,-226.1767962,-8402.539694,399.138606,-40.5,-877.6828641,-879.698611,-5952.220949,-6752.659517,-473.9219594,-1189.917037,855.2222222,2961.403238,62.70446289,68.63261719,59.82,67.18334717,-0.005537109,-0.007382812,0,0.046400904
302,-33,0.9,1,15.52795031,-352.7049825,-8450.639637,402.0015587,-40.25925926,-757.4494492,-1011.080617,-5953.554919,-6361.329759,-714.5141233,-1224.722963,1022.777778,2825.139809,62.65553711,68.56738281,59.82,67.22655606,-0.048925781,-0.065234375,0,0.043208892
302,-33,0.9,1,16.14906832,-486.1163413,-8510.721939,406.6471673,-40.07407407,-624.1824425,-1150.37932,-5954,-6206,-858,-1259,1113,2709,62.65,68.58129855,59.82695384,67.27104956,-0.005537109,0.013915733,0.006953836,0.044493503
302,-33,0.9,1,16.77018634,-616,-8582,414,-40,-487,-1292,-5298,-6816,-912,-1286,1054,2646,62.65,68.64,59.85136322,67.31518592,0,0.058701454,0.024409383,0.044136352
302,-33,0.9,1,17.39130435,-758,-8750,502,-125,-306,-1453,-4688,-7262,-584,-1333,959,2675,62.60214844,68.70150777,59.87477085,67.36485923,-0.047851563,0.061507769,0.02340763,0.049673317
302,-33,0.9,1,18.01242236,-884.4337998,-8987.142315,410.4984848,-230.6942623,-110.4681502,-1596.038422,-5330.444444,-6441.703704,-499.159547,-1332.740741,977.662568,2722.761777,62.58,68.72,59.88,67.42985856,-0.022148438,0.018492231,0.005229151,0.06499933
302,-33,0.9,1,18.63354037,-1094,-9458,240,-294,213,-1813,-6523.555556,-4918.296296,-447.4686624,-1332.259259,1025.436247,2776.492,62.58,68.72,59.88,67.52037126,0,0,0,0.090512692
302,-33,0.9,1,19.25465839,-4063.289833,-20995.65375,1.501515151,33.21733895,2563.246842,-2999.095881,-7166,-4098,-430,-1332,1090,2802,62.56101563,68.7359375,59.88,67.58332698,-0.018984375,0.0159375,0,0.062955726
302,-33,0.9,1,19.8757764,-7304,-32190,-158,364,4681,-4451,-6738.678218,-4866.97076,-804,-1355.366486,1246.212944,2700,62.52,68.8,59.88,67.63,-0.041015625,0.0640625,0,0.046673018
302,-33,0.9,1,20.49689441,-7850,-13190,5884,368,4080,-5111,-5924,-6322,-1178,-1405,1368,2598,62.52,68.91875,59.88,67.67379044,0,0.11875,0,0.043790442
302,-33,0.9,1,21.11801242,-6051.626506,-9002.051617,4122.452555,-113.0634158,4804.5,-5032,-4958,-8010,-1014,-1486,1243,2674,62.52,68.94572278,59.88,67.71738774,0,0.026972776,0,0.043597295
302,-33,0.9,1,21.73913043,-4130,-7402,1516,-635,5529,-4953,-4896.607283,-9858.960932,-755.1440711,-1637.597101,982.746112,2740.601073,62.52,68.83616853,59.88,67.76289286,0,-0.109554244,0,0.045505122
302,-33,0.9,1,22.36024845,-3999.255384,-7173.439816,-284.4525547,-699.9365842,2661.046155,-5100.5,-4878,-10920,-346,-1821,800,2776,62.52,68.68407897,59.90214126,67.83477763,0,-0.152089558,0.022141258,0.071884774
302,-33,0.9,1,22.98136646,-3866,-7092,-1240,-724,-241,-5248,-5585,-10621,856.4330252,-2006.79464,817.1218412,2749.769231,62.52,68.56,59.94,67.93,0,-0.124078974,0.037858742,0.095222367
302,-33,0.9,1,23.60248447,-1141.11811,-8456,-689.6693022,-551.5485185,-277.6363163,-4943.247762,-6292,-10322,1856,-2161,861,2688,62.52,68.56,59.94,68.03007141,0,0,0,0.100071412
302,-33,0.9,2,24.22360248,1458,-9820,942,-93,-310,-4174,-6180,-10460,1918,-2242,996,2548,62.51895623,68.56197754,59.94148315,68.10946221,-0.001043772,0.001977539,0.001483154,0.079390802
302,-33,0.9,2,24.8447205,-9094,-5086,11040,1546,-453,-1941,-5634.504298,-9889.874763,1617.059357,-2195.894252,1077.079851,2463.227754,62.50317511,68.58888184,59.96166138,68.16509792,-0.01578112,0.026904297,0.020178223,0.055635704
302,-33,0.9,2,25.46583851,-7681.395919,-6146,5123.545992,231.5,-432.4547244,-3385.25393,-5154,-9056,1046,-2111,1115,2380,62.47602078,68.6245752,59.9884314,68.21130826,-0.027154328,0.035693359,0.02677002,0.046210346
302,-33,0.9,2,26.08695652,-4684,-7206,-2754,-1083,-369,-5040,-5130,-8616,378,-2020,1077,2249,62.44706232,68.64,59.99946502,68.25425142,-0.028958464,0.015424805,0.011033624,0.042943151
302,-33,0.9,2,26.70807453,192,-5570,-5670,-838,150,-5306,-5689,-7728.575716,-289.4538805,-1887.573056,805.7150838,1958.452718,62.40568344,68.64,59.96016461,68.29220364,-0.041378875,0,-0.039300412,0.037952223
302,-33,0.9,2,27.32919255,5518.315074,-7130,-4205.517133,-216.8182098,591.634871,-5078.21914,-6248,-6574,-966,-1743,565,1548,62.39,68.64738281,59.94553711,68.33385206,-0.015683441,0.007382812,-0.0146275,0.041648426
302,-33,0.9,2,27.95031056,8572,-8690,-1508,323,824,-4597,-6151.501651,-5139.668769,-1628.803436,-1635.777751,617.2849966,1070.026475,62.39,68.71261719,59.99446289,68.3850164,0,0.065234375,0.048925781,0.051164335
302,-33,0.9,2,28.57142857,8027.355835,-7511,2072.929224,462.2394912,290,-3687.861715,-5904.671068,-3444.372239,-2281.852801,-1547.39825,749.5099909,506.8221906,62.39,68.72,60,68.44126901,0,0.007382812,0.005537109,0.056252609
302,-33,0.9,2,29.19254658,6756,-6332,4544,518,-244,-2819,-5571.504952,-2029.88959,-2985.975766,-1432.819624,924.7299898,-99.54318959,62.39,68.72,60,68.48,0,0,0,0.038730992
302,-33,0.9,2,29.8136646,3958,-7782,4686,-70,-140,-2518,-5216,-1438,-3802,-1247,1106,-707,62.39,68.72,60,68.48,0,0,0,0
302,-33,0.9,2,30.43478261,4781,-7789.800429,1811,-87.0461155,-113.2625113,-2128.87899,-4770,-1478,-4880,-649,1316,-1323,62.38190788,68.72,60,68.48896651,-0.008092123,0,0,0.008966513
302,-33,0.9,2,31.05590062,5604,-7792,-1064,-92,-93,-1734,-724.2739642,2736,-4673,-301.5048686,1025.594723,-2804.187845,62.32881712,68.72,60,68.5493483,-0.053090753,0,0,0.060381784
302,-33,0.9,2,31.67701863,4846,-7783.59375,-24.22635276,11,-55.72201021,-1388.307112,2954,6950,-4466,-24,368,-3885,62.28561193,68.72,60,68.59568734,-0.043205198,0,0,0.046339047
302,-33,0.9,2,32.29813665,4088,-7760,1674,114,-22,-1111,616.3796776,4859.276051,-5343,236.4703947,-1342.756829,-3020.5,62.26,68.72,60,68.64,-0.025611927,0,0,0.044312656
302,-33,0.9,2,32.91925466,4354,-7652,2952,-12,-6,-944,-2180,1912,-6220,501,-2891,-2156,62.26,68.68289063,60.04101563,68.68959404,0,-0.037109375,0.041015625,0.049594039
302,-33,0.9,2,33.54037267,5069.332618,-7595.359498,1853.217834,-122.3561792,-62,-602.0222264,-2786,548,-4084,825,-3147,-2609,62.26,68.585625,60.06,68.74011252,0,-0.097265625,0.018984375,0.050518484
302,-33,0.9,2,34.16149068,5606,-7570,442,-181,-118,-238,-2682,-1457.306896,-907.0366631,1147.769925,-3112.740217,-3241.887594,62.26,68.40867188,60.06,68.79022973,0,-0.176953125,0,0.050117211
302,-33,0.9,2,34.7826087,4860.959016,-7793,-130.2178336,-97.18540183,-76.54357088,30.4671159,-2578,-3428,1428,1436,-3018,-3938,62.28735599,68.4,60.06,68.84734933,0.027355994,-0.008671875,0,0.057119597
302,-33,0.9,2,35.40372671,3646,-8016,-390,41,1,179,-3539.073034,-4837.523615,1994.359365,1635.990715,-2272.465338,-4579.511418,62.32,68.40038103,60.06059841,68.87920212,0.032644006,0.00038103,0.000598412,0.031852786
302,-33,0.9,2,36.02484472,2736,-7614,532,148,88,192,-4550,-5878,2216,1849,-1077,-5226,62.32,68.43822349,60.10285365,68.8228618,0,0.037842459,0.042255241,-0.056340322
302,-33,0.9,2,36.64596273,3343,-7713,1197.222564,132.0099602,75.27298851,259.9511079,-4608,-6480,1446,2215,-12,-5907,62.31441279,68.53677021,60.12,68.8,-0.005587215,0.098546719,0.017146346,-0.022861795
302,-33,0.9,2,37.26708075,3950,-7812,1528,102,45,370,-4403.20332,-5446.839886,425.0786983,2511.326817,460.6628198,-6326.303964,62.2729038,68.76092153,60.12,68.8,-0.041508982,0.224151322,0,0
302,-33,0.9,2,37.88819876,3848,-7518,1508,68,-26,493,-4176,-4202,-494,2774,772,-6629,62.22286562,68.83845272,60.12,68.8,-0.050038187,0.077531187,0,0
302,-33,0.9,2,38.50931677,3308.34638,-7552.740741,1450.169623,28.4677142,-13.81481481,454.9662831,-4153.100522,-3836.160114,-1136.998623,3022.053731,1051.167599,-6852.987017,62.19,68.88727988,60.12016195,68.80021593,-0.032865617,0.048827165,0.00016195,0.000215933
302,-33,0.9,2,39.13043478,2469.617635,-7617.259259,1365.069189,-11.86078012,8.814814815,370.4881218,-4126,-3682,-1458,3241,1211,-7024,62.19,68.99487188,60.13555556,68.82074074,0,0.107592001,0.015393605,0.020524807
302,-33,0.9,2,39.7515528,2034,-7652,1300,-40,21,284,-3578,-4236,-1298,3415,1237,-7149,62.20460411,69.07269324,60.16196844,68.85595793,0.014604112,0.077821359,0.026412889,0.035217186
302,-33,0.9,2,40.37267081,2260,-7592,1270,-53,15,209,-2388,-4944,-938,3535,947,-7238,62.25732139,69.1182723,60.17936556,68.87915408,0.052717281,0.045579061,0.017397112,0.023196149
302,-33,0.9,2,40.99378882,2164.717988,-7601.230769,1268.951667,-84.15755236,-29.10188879,144.9629199,-2129.060496,-5799.267871,-1009.25,3520.022409,470.2503297,-7203.544123,62.26,69.05955628,60.18,68.85290454,0.002678608,-0.058716024,0.000634444,-0.026249536
302,-33,0.9,2,41.61490683,1990,-7622,1268,-130,-89,76,-1951.998219,-6749.195344,-1166,3481.559756,-159.2960172,-7113.284328,62.26,68.95391258,60.18039703,68.79503358,0,-0.105643695,0.00039703,-0.057870955
302,-33,0.9,2,42.23602484,1810.030547,-7677.769231,1208.508333,-193.2110147,-120.7502239,-9.945139489,-1850.436832,-7633.025145,-1322.75,3429.317226,-838.4443554,-6986.882369,62.26,68.90644786,60.21371591,68.7364136,0,-0.047464727,0.033318879,-0.058619988
302,-33,0.9,2,42.85714286,1604,-7722,1150,-256,-158,-130,-1818,-8290,-1394,3373,-1464,-6844,62.2490625,68.85658757,60.25755932,68.72,-0.0109375,-0.049860288,0.043843415,-0.016413597
302,-33,0.9,2,43.47826087,1376,-7444,1234,-295,-248,-362,-2448.258008,-8780.490406,-1299.062295,3305.676403,-2101.369888,-6632.198873,62.19300781,68.80237657,60.29821757,68.72,-0.056054688,-0.054211,0.04065825,0
302,-33,0.9,3,44.09937888,884.4661355,-7635,1243.72647,-341.2876128,-201,-636.9842471,-3432,-9026,-1090,3218,-2538,-6382,62.19,68.86115473,60.3,68.72,-0.003007812,0.058778165,0.001782427,0
302,-33,0.9,3,44.72049689,536,-7826,1254,-397,-154,-917,-4106.077687,-8920.944444,-642.6202548,3099.709273,-2674.720379,-6160.805304,62.19,68.98037705,60.3,68.72,0,0.11922232,0,0
302,-33,0.9,3,45.34161491,640,-7644,1396,-473,-162,-1165,-4690,-8782,-174,2967,-2730,-5957,62.19,69.09108203,60.3,68.72,0,0.110704974,0,0
302,-33,0.9,3,45.96273292,1204.49192,-7460.916282,1384.171233,-513.6727575,-161.5,-1442.735303,-5156,-8732,30,2843,-2581,-5787,62.180625,69.1075,60.3,68.71238286,-0.009375,0.016417971,0,-0.007617139
302,-33,0.9,3,46.58385093,2012,-7332,1352,-532,-161,-1657,-5380.247846,-8737.563467,353.2325858,2649.735591,-2247.19655,-5592.226204,62.13257813,69.0434375,60.3,68.65340667,-0.048046875,-0.0640625,0,-0.058976187
302,-33,0.9,3,47.20496894,2798.245989,-7278.721649,1071.828767,-498.5,-197.4245754,-1755.648991,-5478,-8756,636,2411,-1747,-5412,62.13,69.11294932,60.32735599,68.57178554,-0.002578125,0.069511818,0.027355994,-0.081621137
302,-33,0.9,3,47.82608696,3258,-7256,812,-465,-262,-1816,-5076,-9064,750,2139,-1036,-5285,62.13,69.19910156,60.36,68.47022745,0,0.086152244,0.032644006,-0.101558085
302,-33,0.9,3,48.44720497,2564,-7428,950,-515,-324,-1848,-4800.603765,-9098.298797,703.4146341,1985.85512,-482.012835,-5152.646422,62.13,69.13855469,60.36,68.36885928,0,-0.060546875,0,-0.101368175
302,-33,0.9,3,49.06832298,2480.851032,-7494.043021,779,-543.6029306,-314.5,-1945.211747,-4564.149273,-9113.5543,596.8292683,1871.324067,5.732108263,-5014.049643,62.13,69.12,60.36,68.27478916,0,-0.018554688,0,-0.094070121
302,-33,0.9,3,49.68944099,2454,-7538,608,-573,-305,-2057,-4222,-9138,480,1775,504,-4858,62.13,69.12,60.36,68.18797453,0,0,0,-0.086814624
302,-33,0.9,3,50.31055901,2575.006565,-7586.059783,739.8919668,-644.3535912,-401.5,-2114.234842,-3486,-9202,360,1694,1045,-4664,62.15735599,69.08352534,60.36,68.09309825,0.027355994,-0.036474659,0,-0.094876287
302,-33,0.9,3,50.93167702,2804,-7612,962,-696,-498,-2175,-2880.544312,-9162.677419,325.2,1663.600504,1432.114557,-4504.234458,62.19,69.04,60.35982788,68.00175361,0.032644006,-0.043525341,-0.000172119,-0.091344631
302,-33,0.9,3,51.55279503,3109.291823,-7562.464518,1191.108033,-678.7810475,-491.863764,-2332.619898,-2366,-9110,312,1650,1723,-4366,62.19,69.04,60.34360474,67.921824,0,0,-0.016223145,-0.079929614
302,-33,0.9,3,52.17391304,3368,-7454,1330,-649,-481,-2449,-1958,-9090,382,1648,1912,-4251,62.18029855,69.02144531,60.31639526,67.8487259,-0.009701445,-0.018554687,-0.027209473,-0.073098098
302,-33,0.9,3,52.79503106,3462.098116,-7196.454835,1090.3125,-624.8443903,-472.0822662,-2441.34375,-1181.525092,-9079,396.7727273,1640.298554,2041.634134,-4055.70261,62.13412211,68.96089844,60.30017212,67.7856362,-0.046176442,-0.060546875,-0.016223145,-0.063089704
302,-33,0.9,3,53.41614907,3520.121857,-6783.070964,563,-600.5425642,-463.007766,-2424.5,-650,-9074,402,1627,2105,-3785,62.08409571,69.00352534,60.3,67.73913773,-0.050026398,0.042626903,-0.000172119,-0.046498472
302,-33,0.9,3,54.03726708,3574.08467,-6399.151612,35.6875,-572.969456,-451.9293828,-2407.65625,-672.9837233,-9144.93778,346,1610.04158,2065.19687,-3402.380721,62.06,69.04,60.29770405,67.68653439,-0.024095715,0.036474659,-0.00229595,-0.052603333
302,-33,0.9,3,54.65838509,3656,-6230,-204,-539,-437,-2400,-718,-9274,290,1582,1992,-2949,62.06,69.04,60.25251781,67.59690528,0,0,-0.045186241,-0.089629112
302,-33,0.9,3,55.27950311,3855.640684,-7388.232323,279.06471,-473.9476704,-399.6323529,-2450,-784.0576684,-9417.402291,310.0971737,1478.646882,1905.834006,-2471.602001,62.06,69.07338083,60.24,67.50646096,0,0.033380826,-0.01251781,-0.090444321
302,-33,0.9,3,55.90062112,4002,-8928,1114,-428,-371,-2500,-877.8548769,-9594.388217,365.4115212,1273.12205,1796.006991,-1950.649685,62.06,69.19387747,60.24,67.41851497,0,0.120496642,0,-0.08794599
302,-33,0.9,3,56.52173913,3971,-9650.767677,2044.93529,-545.9392247,-506.5373134,-2479,-975.0232513,-9773.872996,448.4772819,1012.773777,1685.162974,-1430.796368,62.03,69.2,60.24,67.32059299,-0.03,0.006122532,0,-0.097921978
302,-33,0.9,3,57.14285714,3940,-9992,2624,-686,-659,-2458,-1051.194417,-9924.771851,551.828695,744.9503356,1595.945971,-956.6953676,62,69.2,60.23742188,67.21994852,-0.03,0,-0.002578125,-0.10064447
302,-33,0.9,3,57.76397516,4116,-9704,1974,-715,-680,-2471,-1082,-10016,668,517,1551,-573,62,69.2,60.189375,67.11864968,0,0,-0.048046875,-0.101298844
302,-33,0.9,3,58.38509317,4100.63655,-9790,1066.617829,-715,-831.8957811,-2441.5,-918,-10052,860,336,1541,-304,62,69.2,60.18,67.06532747,0,0,-0.009375,-0.053322212
302,-33,0.9,3,59.00621118,4058,-9876,460,-715,-989,-2412,-482,-9570,886,61,1488,126,62,69.2,60.18,67.03108967,0,0,0,-0.034237802
302,-33,0.9,3,59.62732919,3586.36345,-9480.72973,410.0344439,-763,-1026.127424,-2477.121905,-98.2632234,-9206.466178,569.5776892,-83.09681467,1376.517893,515.9768072,62.03,69.2,60.15,66.91454029,0.03,0,-0.03,-0.116549375
302,-33,0.9,3,60.2484472,3142,-8706,362,-811,-1041,-2603,106,-8852,154,-165,1210,862,62.06,69.2,60.12,66.76907998,0.03,0,-0.03,-0.145460313
302,-33,0.9,3,60.86956522,3523.696018,-7587.552056,-100.0449898,-663.5849503,-1006,-2800.378095,96.31578947,-8354.562103,-31.57768924,-193.6595865,959.8962528,1156.150236,62.06,69.2,60.12,66.68257135,0,0,0,-0.086508629
302,-33,0.9,3,61.49068323,4114,-6546,-518,-465,-971,-2937,74,-7948,-118,-219,673,1404,62.06,69.21334476,60.10608398,66.59314421,0,0.013344759,-0.013916016,-0.089427144
302,-33,0.9,3,62.11180124,4570.24646,-5961.553482,-456.4375,-365.0901119,-1014.90625,-2917.46875,7.684210526,-7771.549819,-110,-267.9205311,420.7395279,1610.85393,62.06,69.27483889,60.06067383,66.49886326,0,0.061494135,-0.045410156,-0.094280943
302,-33,0.9,3,62.73291925,5031.607964,-5462.436429,-321,-278.3300994,-1111.5,-2874.5,-46,-7660,-102,-336,181,1773,62.06,69.33319172,60.06,66.4070213,0,0.058352822,-0.000673828,-0.091841961
302,-33,0.9,3,63.35403727,5388.665487,-5114.601161,-185.5625,-217.1550373,-1208.09375,-2831.53125,1,-7592.233251,-136,-436.6094904,-79.69344741,1904.309766,62.06015715,69.35850496,60.05971968,66.34052146,0.000157145,0.025313244,-0.00028032,-0.066499839
302,-33,0.9,3,63.97515528,5532,-4984,-124,-194,-1252,-2812,48,-7532,-170,-547,-257,1974,62.06531864,69.31355136,60.05129088,66.29521925,0.005161491,-0.0449536,-0.0084288,-0.045302212
302,-33,0.9,3,64.59627329,5297.263844,-4999,-317.5555556,-263.5060044,-1165.313239,-2819.113402,46.38433112,-7430.348865,-162.1745335,-639.5642622,-313.8632619,1979.651255,62.07673849,69.22866176,60.03537408,66.25557964,0.011419858,-0.0848896,-0.0159168,-0.039639609
302,-33,0.9,3,65.2173913,5020,-5014,-660,-389,-1026,-2835,40.76866223,-7318.618877,-137.460178,-725.5770029,-351.431631,1982.936739,62.09300593,69.13455616,60.01772928,66.22457329,0.016267439,-0.0941056,-0.0176448,-0.031006351
302,-33,0.9,3,65.83850932,4947.736156,-4512,-1069.444444,-517.5372552,-924.9715381,-2871.441053,30,-7266,-94,-802,-365,1984,62.11271017,69.06195456,60.00411648,66.20517085,0.019704235,-0.0726016,-0.0136128,-0.019402438
302,-33,0.9,3,66.45962733,4918,-4010,-1330,-652,-829,-2909,-142,-7274,164,-865,-193,1976,62.13596551,69.0434375,60,66.2,0.023255348,-0.01851706,-0.00411648,-0.005170853
302,-33,0.9,3,67.08074534,5230,-4293.04995,-1141.374819,-787.5427321,-733.6428547,-2920.823507,-246,-7246,196,-899,-69,1969,62.18228413,69.1075,60,66.2,0.046318615,0.0640625,0,0
302,-33,0.9,3,67.70186335,5542,-4736,-840,-886,-645,-2936,-402.7204521,-8668.814815,2987.558658,-523.3333333,-1354.616081,2410.30193,62.19,69.12,60,66.1771382,0.00771587,0.0125,0,-0.022861795
302,-33,0.9,3,68.32298137,5316,-5028,-628,-920,-570,-3051,-652.172087,-11311.18519,8114.779329,174.3333333,-3940.898829,3296.270527,62.19,69.12,60,66.12079788,0,0,0,-0.056340322
302,-33,0.9,3,68.94409938,5771.18135,-5460.706001,-455.1136906,-902.5,-525.0241935,-3123.528351,-1086,-12734,10870,550,-5922,3970,62.19,69.16352534,60,66.12,0,0.043525341,0,-0.000797883
302,-33,0.9,3,69.56521739,6488,-6076,-266,-885,-504,-3158,-2976,-11884,10432,-279,-6705,4230,62.19,69.19762343,60,66.1234375,0,0.03409809,0,0.0034375
302,-33,0.9,4,70.1863354,6970,-7136,26,-914,-557,-3074,-1001,-6121.118384,5894.57757,-1382.210295,-5032.757148,4076.873178,62.19,69.14341243,60,66.1875,0,-0.054211,0,0.0640625
302,-33,0.9,4,70.80745342,7354.286876,-8141.119208,366.4487689,-1001.391252,-580.1812394,-2902.40694,974,-1038,1722,-2058,-2123,3760,62.20447367,69.09148858,60,66.2,0.014473673,-0.051923848,0,0.0125
302,-33,0.9,4,71.42857143,7552,-9060,566,-1094,-590,-2770,-6884,-11296,1834,-1680,522,3282,62.25572665,69.0447534,60,66.2,0.051252973,-0.046735185,0,0
302,-33,0.9,4,72.04968944,6728,-10018.40234,425.8137255,-1136.524444,-587.7866667,-2755.448752,5355,-24648.27088,6212.377993,-496.3926435,1164.815766,2855.267362,62.30294708,68.98808911,60,66.23808467,0.047220432,-0.056664285,0,0.038084673
302,-33,0.9,4,72.67080745,5904,-10556,250,-1167,-582,-2741,17594,-32768,10492,423,1399,2627,62.35346164,68.92565061,60.00257813,66.27,0.050514567,-0.062438499,0.002578125,0.031915327
302,-33,0.9,4,73.29192547,6324.97948,-10116.43856,186.1862745,-1185.883595,-558.9191693,-2650.496189,11669.61664,-17678,3226.640179,-867.5,1133.326195,2726.652452,62.38645269,68.88445069,60.050625,66.27,0.032991046,-0.041199927,0.048046875,0
302,-33,0.9,4,73.91304348,6980,-9252,158,-1212,-515,-2462,3862,-2588,-4258,-2158,668,2951,62.39,68.8939444,60.06,66.27,0.003547309,0.009493717,0.009375,0
302,-33,0.9,4,74.53416149,7404,-8130,204,-1355,-438,-2039,1059.649422,-5013,-4593.640179,-1631.934623,128.1738051,3554.847548,62.39,68.95636475,60.06,66.27,0,0.062420347,0,0
302,-33,0.9,4,75.1552795,7774,-7350,260,-1403,-214,-1714,-1328,-7438,-4710,-892,-212,4034,62.39,69.02145644,60.0484314,66.27,0,0.065091688,-0.011568604,0
302,-33,0.9,4,75.77639752,7005,-5497.589723,-442.9918458,-1399.091549,-35.66328501,-1386.431534,-5445.266059,-7199.371859,-1837.804788,-462.0653766,-197.3348006,3801.362784,62.39,69.04,60.02166138,66.27,0,0.018543562,-0.02677002,0
302,-33,0.9,4,76.39751553,6236,-3880,-1458,-1388,118,-1108,-8094,-6910,1910,-246,-153,3346,62.39,69.04,60.00148315,66.27,0,0,-0.020178223,0
302,-33,0.9,4,77.01863354,6291.288416,-3403.256398,-2104.008154,-1262.640003,263.1470434,-935.2352465,-7454,-6842,3182,-439,158,2763,62.39,69.07314187,60,66.27,0,0.033141873,-0.001483154,0
302,-33,0.9,4,77.63975155,6418,-3208,-2438,-1048,374,-771,-6387.19263,-7030.9427,2440.25,-674.1290582,234.193484,2212.122929,62.39,69.18751181,60,66.27,0,0.114369937,0,0
302,-33,0.9,4,78.26086957,6726.640744,-3229.208804,-2283.149118,-826.3172813,446.989011,-551.848726,-5234,-7396,974,-814,262,1715,62.39,69.38275331,59.97246074,66.31746094,0,0.195241505,-0.02753926,0.047460938
302,-33,0.9,4,78.88198758,7082,-3284,-1904,-602,482,-282,-4366,-7846,-958,-691,203,1314,62.39324083,69.55497293,59.92765312,66.34340525,0.003240831,0.172219611,-0.04480762,0.025944314
302,-33,0.9,4,79.50310559,7274,-3458,-920,-420,281,87,-3764,-8050,-606,-571,123,1077,62.43244911,69.64347784,59.88578422,66.28120293,0.039208274,0.088504918,-0.041868899,-0.06220232
302,-33,0.9,4,80.1242236,7336,-3758,-326,-349,88,347,-3977.111111,-7936.962963,-259.1822516,-602.3703704,131.2199074,821.6436605,62.48131532,69.7479893,59.88,66.27,0.048866214,0.104511457,-0.005784222,-0.011202931
302,-33,0.9,4,80.74534161,7592,-3812,336,-287,-202,806,-4372.888889,-7727.037037,58.74220755,-660.6296296,151.2175926,560.0331486,62.52,69.85,59.88,66.27,0.03868468,0.102010699,0,0
302,-33,0.9,4,81.36645963,7982,-3548,694,-269,-406,1158,-4586,-7614,198,-692,176,319,62.52,69.90018268,59.84214126,66.30983988,0,0.050182679,-0.037858742,0.039839881
302,-33,0.9,4,81.98757764,7827.753405,-2312.253898,279.5799994,-226.4523774,-519.0347554,1664.661369,-4054,-7738,-756,-623,211,115,62.52,69.94405483,59.82,66.3647067,0,0.043872148,-0.022141258,0.054866816
302,-33,0.9,4,82.60869565,7390.675746,-109.55902,-661.4533348,-151.9355573,-612.6420048,2274.145331,-3057.233618,-7871.692458,-553.9848485,-468.3740468,128.5,49.42131913,62.52,69.99083944,59.82,66.41335857,0,0.046784609,0,0.048651876
302,-33,0.9,4,83.22981366,6709.260214,1993.915367,-1675.760002,-45.70095861,-676.4282518,2789.556627,-2378,-7948,-220,-320,46,3,62.52,70.03733608,59.83898438,66.42,0,0.046496639,0.018984375,0.006641428
302,-33,0.9,4,83.85093168,5822,2932,-2310,92,-700,3014,-2733,-7854,105.9848485,-260.1905513,48.5,-53.15438779,62.52,70.09,59.88,66.42,0,0.052663925,0.041015625,0
302,-33,0.9,4,84.47204969,2826.878114,376.146538,-2580.273333,391.7677783,-570,3021.362319,-3088,-7760,300,-214,51,-107,62.52,70.20853185,59.84214126,66.45056825,0,0.11853185,-0.037858742,0.030568251
302,-33,0.9,4,85.0931677,270,-2610,-2704,788,-440,3029,-2628,-7830,60,-164,44,-155,62.51422959,70.26,59.82,66.51101425,-0.005770405,0.05146815,-0.022141258,0.060446002
302,-33,0.9,4,85.71428571,187.8382452,-3339.999965,-1434.666667,1209.71669,-614.7407407,3361.12425,-2584.635925,-7841.225945,317.8186528,-108.2142857,18.97775801,-180.5228471,62.45980256,70.26,59.82,66.6081469,-0.05442703,0,0,0.097132648
302,-33,0.9,4,86.33540373,140.9191226,-3817.164717,922.6666667,1630.136123,-939.2592593,4013.774023,-2550,-7848,604,-76,-1,-192,62.48342151,70.23873633,59.83386917,66.68023093,0.023618941,-0.021263675,0.013869173,0.072084025
302,-33,0.9,4,86.95652174,126,-4054,2192,1821,-1114,4513,-2384.310252,-7854.878789,647.3664554,-85.20441978,4.207533722,-178.5074604,62.58,70.17,59.88,66.72,0.096578494,-0.068736325,0.046130827,0.039769074
302,-33,0.9,4,87.57763975,137.1661184,-4157.209782,1760.925624,1724.308719,-874.6600153,4713.591252,-2070.313024,-7859.985521,671.5488998,-109.3732593,17.70260117,-141.1623811,62.63346598,70.11082517,59.92402609,66.66952168,0.053465979,-0.05917483,0.044026091,-0.050478323
302,-33,0.9,4,88.19875776,174,-4200,918,1617,-494,4889,-1696.960669,-7865.652858,687.8481166,-143.339889,36.29390175,-84.66357158,62.65,70.09,59.94,66.64,0.016534021,-0.02082517,0.015973909,-0.029521677
302,-33,0.9,4,88.81987578,752,-3832,-158,1604,-230,5130,-1353.205543,-7874.213463,707.5648889,-181.9376791,56.79013489,-13.7098414,62.65,70.09,59.94,66.64,0,0,0,0
302,-33,0.9,4,89.44099379,968,-3806,-1460,1806,63,5556,-1128,-7888,742,-220,76,67,62.65,70.09,59.91785874,66.61416853,0,0,-0.022141258,-0.025831468
302,-33,0.9,4,90.0621118,921.5445545,-3821.80695,-1685.183213,2079.379038,290.2014065,5926.39184,-995.9300084,-8015.294264,835.2535096,-262.5195145,99.87572856,210.7381196,62.65,70.09,59.88,66.57,0,0,-0.037858742,-0.044168532
302,-33,0.9,4,90.68322981,866,-3852,-1762,2332,477,6251,-932,-8134,920,-309,115,382,62.68785874,70.09,59.88,66.65052639,0.037858742,0,0,0.080526391
302,-33,0.9,4,91.30434783,854,-3888,-1122,2480,621,6515,-1457.460236,-7951,944.1367925,-350.9758523,99,527.5232588,62.71,70.08483378,59.87446289,66.73800557,0.022141258,-0.005166225,-0.005537109,0.087479178
302,-33,0.9,4,91.92546584,1012,-4286,-182,2585,742,6880,-2082,-7768,954,-396,83,631,62.71,70.02698803,59.82553711,66.78620441,0,-0.05784575,-0.048925781,0.048198842
302,-33,0.9,4,92.54658385,1259.410232,-4661.475305,-41,2570.466066,805.8323907,7198.051639,-2212,-7798,792,-453,157,669,62.71,69.98106191,59.84214126,66.76416853,0,-0.045926111,0.016604149,-0.022035878
302,-33,0.9,4,93.16770186,1524,-5028,6,2537,872,7473,-2032.592593,-7813.892735,795.3647419,-482.8907619,166.5903458,736.1223713,62.71,69.93,59.88,66.72,0,-0.051061914,0.037858742,-0.044168532
302,-33,0.9,4,93.78881988,1718.647993,-5366.242947,-54.59806829,2457.932529,995.1306016,7736.328004,-1699.407407,-7825.501923,803.6183726,-504.837196,171.1531361,831.2379227,62.71,69.74887429,59.83898438,66.72,0,-0.18112571,-0.041015625,0
302,-33,0.9,4,94.40993789,1883.308939,-5683.519054,-205.4281821,2318.601009,1172.514257,7997.40267,-1520,-7830,814,-535,177,946,62.71,69.69120293,59.82,66.71099031,0,-0.057671359,-0.018984375,-0.009009688
302,-33,0.9,4,95.0310559,2063.315415,-6036.535634,-400.0442049,2152.218984,1392.640784,8197.276001,-1547.570845,-7779.983112,833.6313321,-593.8332378,185.6945283,1101.715956,62.71,69.75340525,59.82,66.65279488,0,0.06220232,0,-0.058195434
302,-33,0.9,4,95.65217391,2304,-6482,-592,1992,1644,8277,-1618,-7684,848,-666,200,1284,62.73091629,69.76,59.82,66.61864566,0.020916291,0.006594749,0,-0.034149216
302,-33,0.9,4,96.27329193,2687.439069,-7194.561999,-838.7859089,1833.311338,2080.784708,8172.149228,-1832,-7568,766,-733,247,1464,62.78,69.76,59.82,66.5912314,0.049083709,0,0,-0.027414262
302,-33,0.9,4,96.89440994,3218,-7992,-998,1682,2386,7968,-1769,-7552.445386,844,-825.1325011,287.0456516,1622.905516,62.80947018,69.76,59.82,66.57338073,0.02947018,0,0,-0.017850666
302,-33,0.9,4,97.51552795,4091.96275,-8726.510322,-661.0206063,1568.323189,2362.413589,7712.584718,-1706,-7542,922,-903,322,1778,62.834967,69.76,59.82,66.57,0.025496817,0,0,-0.003380734
302,-33,0.9,4,98.13664596,5260.189111,-9472.184821,125.1117166,1473.42347,2290.852903,7382.572827,-1726.206897,-7527.596669,628.399324,-942.0711094,352.2879944,1951.422046,62.8490884,69.76,59.82,66.57,0.014121398,0,0,0
302,-33,0.9,4,98.75776398,6283.320917,-10083.26691,1023.188181,1372.562016,2170.115766,7036.524523,-1770,-7504,260,-965,378,2110,62.85,69.69125057,59.82,66.57,0.000911605,-0.068749428,0,0
302,-33,0.9,4,99.37888199,6722,-10414,1696,1241,1999,6733,-1846,-7414,156,-974,398,2223,62.85,69.52,59.82,66.57,0,-0.171250572,0,0
302,-33,0.9,4,100,6620,-10508,2062,1028,1367,6494,-1910.29504,-7466,607,-1022.114797,420.4799299,2371.018252,62.85,69.40924467,59.82,66.57,0,-0.110755327,0,0
302,-33,0.9,1,0,6292.355044,-10607.82485,1854.049005,786.4666837,315.9675381,6176.539888,-2006,-7518,1058,-1106,452,2506,62.8584022,69.33839523,59.82,66.57980256,0.008402198,-0.070849443,0,0.009802565
302,-33,0.9,1,0.666666667,5747.196948,-10702.13465,1385.653566,539.753667,-918.1636407,5794.560379,-2619.136778,-7357.875,1000.202569,-1229.371039,527.2193098,2588.613633,62.90505394,69.29686323,59.82,66.63422959,0.04665174,-0.041532,0,0.05442703
302,-33,0.9,1,1.333333333,5186,-10744,890,350,-1715,5356,-3162,-7152,864,-1354,617,2656,62.91,69.21176038,59.82,66.64,0.004946061,-0.085102852,0,0.005770405
302,-33,0.9,1,2,4728.668212,-9972.444444,443.2250617,208.195122,-2056.359009,4847.926375,-3076,-7068.125,546.2137284,-1445.165803,694.9519231,2722.556854,62.90940159,69.1138596,59.82,66.64020354,-0.000598412,-0.097900779,0,0.000203542
302,-33,0.9,1,2.666666667,4253.597498,-8539.555556,-37.18063804,92.09756098,-2301.23506,4250.655842,-2990,-7030,46,-1492,738,2779,62.86714635,69.0698225,59.82,66.65970283,-0.042255241,-0.044037097,0,0.019499288
302,-33,0.9,1,3.333333333,3600,-7768,-556,44,-2395,3562,-3419,-7038.235849,-804.4162976,-1452.141129,730.5,2829.33875,62.85,69.01044264,59.82,66.69385711,-0.017146346,-0.059379867,0,0.034154285
302,-33,0.9,1,4,2352,-9764,-1146,373,-2362,2683,-3848,-7048,-1394,-1372,723,2856,62.85,68.91172707,59.82,66.7182414,0,-0.098715561,0,0.024384287
302,-33,0.9,1,4.666666667,1999.35644,-9054,-513.8544386,538.7293572,-2270.205831,2288.484468,-3832,-7050,-822,-1261,725,2853,62.85,68.79611051,59.82,66.72,0,-0.115616565,0,0.0017586
302,-33,0.9,1,5.333333333,1732,-8344,200,612,-2127,1983,-4008.794337,-7267.34498,-525.9754101,-1210.16776,717.3546512,2875.5,62.85,68.65780878,59.82,66.72044788,0,-0.138301729,0,0.000447875
302,-33,0.9,1,6,1209.370159,-8609,333.8544386,577.9249847,-1929.162622,1615.559542,-4336,-7580,-370,-1168,705,2898,62.85,68.53265925,59.82,66.75863981,0,-0.125149525,0,0.038191937
302,-33,0.9,1,6.666666667,864,-8874,386,503,-1702,1292,-4692,-7740,-332,-1112,696,2886,62.85,68.45230184,59.82,66.80938192,0,-0.080357417,0,0.050742109
302,-33,0.9,1,7.333333333,860,-8792,190,367,-1494,1075,-4992.53388,-7908.186496,-67.40651801,-1101.768116,723.625666,2832.488821,62.85,68.4019599,59.82,66.86083569,0,-0.050341937,0,0.05145377
302,-33,0.9,1,8,675.0062817,-8861.78733,140.2830189,244.0303507,-1180.482862,833.2996323,-5251.711384,-8079.009528,361.296741,-1095.884058,791.2513319,2741.934965,62.82648861,68.66688615,59.82,66.90135647,-0.023511389,0.264926244,0,0.040520783
302,-33,0.9,1,8.666666667,388,-8986,122,135,-864,612,-5362,-8240,586,-1094,876,2664,62.78,69.04,59.82,66.94,-0.046488611,0.373113855,0,0.038643526
302,-33,0.9,1,9.333333333,154.0313095,-9137.21267,179,41.03293481,-634.5094205,437.3862647,-5220.693402,-8356.444601,558.3078849,-1155.517408,1000.614287,2616.66651,62.75017513,69.01327518,59.82,66.98991746,-0.029824866,-0.026724819,0,0.04991746
302,-33,0.9,1,10,6,-9234,236,-36,-447,311,-4922,-8522,482,-1276,1150,2574,62.72406211,68.95328221,59.82,67.03803794,-0.026113019,-0.059992968,0,0.048120481
302,-33,0.9,1,10.66666667,-18,-9064,150,-90,-303,247,-4469.847498,-9691.534856,-289.3078849,-1472.982592,1317.306839,2516.065574,62.7104492,68.89029333,59.82,67.08107226,-0.013612912,-0.062988883,0,0.043034314
302,-33,0.9,1,11.33333333,-308.1069519,-8760.402304,-85.01091703,-86.06081081,-257.5858896,101.3115779,-3816,-10736,-1012,-1611,1417,2481,62.71,68.83268751,59.82,67.12788413,-0.000449203,-0.05760582,0,0.046811871
302,-33,0.9,1,12,-578,-8512,-262,-79,-240,-82,-2612.4591,-10384.26424,-574,-1585.993977,1175.5,2767.967777,62.71,68.8,59.82,67.17433851,0,-0.03268751,0,0.046454379
302,-33,0.9,1,12.66666667,-522,-8450,-242,-72,-261,-244,-1768,-9708,-136,-1537,934,3074,62.71,68.8,59.82,67.21465813,0,0,0,0.040319625
302,-33,0.9,1,13.33333333,-452,-8245.767214,-104.9931034,-89.27099237,-290.2587903,-414.9069349,-2270.8125,-8738.842949,-157.0533925,-1462.357301,997.6627907,3106.853751,62.704733,68.8,59.82,67.25903376,-0.005266995,0,0,0.044375625
302,-33,0.9,1,14,-410,-7952,16,-122,-325,-602,-3377,-7450.47151,-215.9757135,-1360.512045,1140.267442,3129.564445,62.65965968,68.8,59.82,67.31012485,-0.045073323,0,0,0.051091098
302,-33,0.9,1,14.66666667,-410.8848168,-7657.842775,-37,-155.0041919,-374.437931,-817.2854561,-4483.1875,-6324.364316,-306.4101776,-1270.660767,1289.238372,3142.742917,62.60373403,68.8,59.84735599,67.35831521,-0.055925648,0,0.027355994,0.048190356
302,-33,0.9,1,15.33333333,-414,-7352,-90,-203,-406,-1063,-4986,-5842,-422,-1232,1372,3147,62.58,68.79910156,59.88,67.40451166,-0.023734035,-0.000898438,0.032644006,0.046196454
302,-33,0.9,1,16,-698,-7060,-30,-305,-335,-1358,-4959.437811,-6057.191244,-797.947514,-1295.15254,1394.984496,3131.444444,62.58,68.73855469,59.88,67.44821465,0,-0.060546875,0,0.043702984
302,-33,0.9,1,16.66666667,4153,-15720,2743.536315,-4,611.5490287,-3864.801487,-4873.320066,-6581.715821,-1364.084868,-1438.527302,1410.992248,3102.555556,62.57248867,68.73036331,59.88,67.49202186,-0.007511327,-0.008191382,0,0.043807212
302,-33,0.9,1,17.33333333,9004,-24380,5464,297,2253,-6130,-4718,-7234,-1656,-1593,1417,3087,62.53234827,68.78425883,59.88,67.53642891,-0.040140403,0.053895526,0,0.044407052
302,-33,0.9,1,18,4424,-10618,4644.961492,-282.4841825,4450.057501,-6027.451923,-3582,-8164,-866,-1745,1219,3228,62.48312557,68.83436061,59.88,67.58221906,-0.049222705,0.050101779,0,0.045790143
302,-33,0.9,1,18.66666667,-156,3144,3818,-1032,5891,-5860,-4053.221675,-8222.336317,-801.847181,-1898.73993,1035.29059,3380.140013,62.45,68.88500879,59.88,67.62913643,-0.033125566,0.05064818,0,0.046917375
302,-33,0.9,1,19.33333333,4390,-400.0369971,3810.525335,-1345.515817,3948.793296,-5762.49856,-4866,-8240,-782,-2019,912,3467,62.45,68.93535456,59.88,67.67643681,0,0.050345774,0,0.047300384
302,-33,0.9,1,20,8936,-7142,3802,-1489,1271,-5610,-5586,-8002,-808,-2077,876,3428,62.45,68.98877338,59.88,67.72335923,0,0.053418817,0,0.04692242
302,-33,0.9,2,20.66666667,8376,-15086,396,-932,131,-4706,-5722.622754,-8169,-367,-2128.267792,870.0243902,3281.796872,62.45,69.03794565,59.88,67.77036216,0,0.049172266,0,0.047002927
302,-33,0.9,2,21.33333333,4190.636619,-6370,1546,121.3052136,-470.925816,-4087.845842,-5770,-8336,74,-2170,868,3093,62.45,69.00942263,59.88,67.81726091,0,-0.028523015,0,0.046898753
302,-33,0.9,2,22,-988,2346,2696,841,-741,-3786,-5546,-7656,48,-2197,879,2963,62.44794239,68.95118054,59.88,67.87370834,-0.002057613,-0.05824209,0,0.056447421
302,-33,0.9,2,22.66666667,-3218,-9832,2094,-190,2,-4711,-5578.113363,-7779,-348.6803886,-2180.714286,945.8390603,2801.436919,62.40555556,68.91294143,59.88,67.96233895,-0.042386831,-0.038239111,0,0.088630612
302,-33,0.9,2,23.33333333,-1537.237299,-8018.915567,-2710.211895,-271.0124744,-94,-4928.962936,-5664,-7902,-954,-2141,1004,2585,62.39,68.83253044,59.88257813,68.0350678,-0.015555556,-0.080410996,0.002578125,0.072728852
302,-33,0.9,2,24,1300,-6046,-7416,-296,-190,-5011,-6200.45431,-7843.208723,-1387.913835,-2015.16483,765.7741546,2238.003482,62.39,68.66028074,59.9044043,68.09235986,0,-0.172249699,0.021826172,0.057292064
302,-33,0.9,2,24.66666667,3658,-5854,-7888,171,685,-5016,-6878,-7678,-1812,-1854,438,1745,62.39,68.585,59.930625,68.14014642,0,-0.075280737,0.026220703,0.047786557
302,-33,0.9,2,25.33333333,7949.993652,-5544,-4909.124984,971.0922673,474.5647799,-4413.988992,-7262.432327,-5730.21272,-2365.19887,-1741.844458,262.2258454,970.486766,62.38732139,68.56,59.94,68.17614583,-0.002678608,-0.025,0.009375,0.035999407
302,-33,0.9,2,26,10850,-5342,56,1502,173,-3498,-7452,-3408,-2726,-1655,176,129,62.33460411,68.56,59.94,68.20053472,-0.052717281,0,0,0.024388892
302,-33,0.9,2,26.66666667,8129,-6126.526656,5022.124984,1078.833088,-14.06477987,-2964.475026,-6688,-2740,-2760,-1602,257,-484,62.32,68.56,59.94,68.22042378,-0.014604112,0,0,0.019889062
302,-33,0.9,2,27.33333333,5408,-7178,8002,373,-110,-2427,-6170.488463,-2720.33669,-2850.003095,-1431.01468,329.897351,-1077.030833,62.32,68.56,59.94,68.24408654,0,0,0,0.023662754
302,-33,0.9,2,28,7920,-7578,3576,-193,-51,-1679,-5636,-2700,-2974,-1125,369,-1692,62.32,68.52352534,59.94,68.27983,0,-0.036474659,0,0.035743465
302,-33,0.9,2,28.66666667,6845.217138,-7722.182898,514.645522,-164.8292683,-128.5,-951.463947,-4778,1342,-3100,-561,215,-2390,62.31932617,68.48060547,59.94067383,68.32457861,-0.000673828,-0.042919872,0.000673828,0.044748606
302,-33,0.9,2,29.33333333,5130,-7780,-986,-109,-206,-439,-2988.187225,5797.596283,-4994.756669,-225.2113652,-413.1135005,-3173.00663,62.27391602,68.52962891,59.98608398,68.37448496,-0.045410156,0.049023437,0.045410156,0.049906357
302,-33,0.9,2,30,3625.782862,-7753,56.33830846,-14.17073171,-135.6626506,-243.2749927,-1324,8360,-6782,-38,-1415,-3626,62.26,68.59037109,60,68.42531011,-0.013916016,0.060742188,0.013916016,0.050825146
302,-33,0.9,2,30.66666667,2762,-7726,1310,53,-38,-118,-716,4154,-6544,10,-2606,-2588,62.26,68.63939453,60,68.47525373,0,0.049023437,0,0.049943616
302,-33,0.9,2,31.33333333,3266.847206,-7749,1674.661692,-33.98429711,16.1626506,-34.10217334,-772.8081301,423.884845,-4167.950929,507.1872064,-2715.654567,-2761.590403,62.23358785,68.64,60,68.52,-0.026412153,0.000605469,0,0.044746274
302,-33,0.9,2,32,4254,-7772,1828,-130,43,59,-912,-2518,-836,1114,-2750,-3148,62.18597154,68.63910156,60,68.56474627,-0.047616304,-0.000898438,0,0.044746274
302,-33,0.9,2,32.66666667,5514,-7178,804,-141,-17,279,-1311.575652,-4699.167438,1687.352782,1335.090149,-2467.768107,-3974.74598,62.13981591,68.57855469,60,68.61468989,-0.046155629,-0.060546875,0,0.049943616
302,-33,0.9,2,33.33333333,5225.279148,-7225.841803,888.864,-121.032,-14.504,448.7337931,-1946,-5784,3054,1526,-1981,-4922,62.13,68.56,60.01391602,68.67037109,-0.009815915,-0.018554687,0.013916016,0.055681203
302,-33,0.9,2,34,4517.757444,-7341.205408,1091.232,-73.416,-8.552,612.1255172,-2795.879973,-5474.606052,1296.336864,1799.330478,-1556.375984,-5524.988658,62.13,68.56,60.05932617,68.71939453,0,0,0.045410156,0.049023437
302,-33,0.9,2,34.66666667,3629.396166,-7481.848113,1332.768,-16.584,-1.448,751.1503448,-3588,-4886,-766,2099,-1107,-5990,62.05927132,68.90820273,60.06,68.72,-0.070728679,0.348202727,0.000673828,0.000605469
302,-33,0.9,2,35.33333333,2798.156592,-7605.527211,1535.136,31.032,4.504,847.7834483,-4102.790362,-4035.811462,-1303.339611,2412.337559,-629.3385055,-6333.290504,62,69.18786101,60.06,68.72,-0.059271321,0.279658283,0,0
302,-33,0.9,2,36,2262,-7670,1620,51,7,884,-4515.172959,-3041.905731,-1662.892028,2730.331237,-133.3945869,-6615.447784,62,68.9465704,60.06,68.72,0,-0.241290614,0,0
302,-33,0.9,2,36.66666667,1999.866312,-7688.877256,1566.25,40.72297297,0.606907895,867.3674033,-4684,-2564,-1794,2997,351,-6887,62.02716202,68.84788775,60.06,68.76148148,0.027162016,-0.09868265,0,0.041481481
302,-33,0.9,2,37.33333333,1802.938175,-7703.550616,1448,13.84459459,-14.38157895,821.6464088,-4008.299697,-3068.80225,-1247,3208.698097,922.6690006,-7188.79568,62.11778873,68.81108724,60.06,68.87451303,0.090626711,-0.036800512,0,0.11303155
302,-33,0.9,2,38,1627.540951,-7713.448669,1329.75,-23.70608108,-31.67927632,753.1022099,-2922,-3918,-700,3360,1260,-7428,62.16173561,68.70759878,60.09,68.88,0.04394688,-0.103488452,0.03,0.005486968
302,-33,0.9,2,38.66666667,1430,-7718,1276,-66,-45,668,-2063.399848,-4627.400258,-891.1952344,3434.292926,1224.487444,-7578.977421,62.19919171,68.64,60.12,68.87453011,0.037456099,-0.067598784,0.03,-0.005469891
302,-33,0.9,2,39.33333333,1194.897287,-7718.86363,1358.664122,-144.1722973,-52.35809321,488.6595542,-1384,-5320,-1318,3501,1129,-7651,62.25209135,68.64,60.12,68.75945255,0.052899639,0,0,-0.115077555
302,-33,0.9,2,40,956,-7720,1500,-201,-60,260,-937.3004545,-6003.568881,-2363.328303,3617.536061,576.3444882,-7559.026395,62.24733076,68.6171382,60.13714635,68.68100202,-0.004760591,-0.022861795,0.017146346,-0.078450536
302,-33,0.9,2,40.66666667,730,-7884,1622,-200,-73,80,-722,-6550,-3302,3724,-293,-7392,62.19543985,68.56079788,60.17940159,68.64044226,-0.051890902,-0.056340322,0.042255241,-0.040559754
302,-33,0.9,3,41.33333333,1156,-7910,1520,-294,-126,-108,-1082,-6842,-3464,3774,-1084,-7220,62.11943175,68.60352534,60.18,68.68352534,-0.076008099,0.042727458,0.000598412,0.043083076
302,-33,0.9,3,42,973.4814815,-7875.760028,1455.471046,-366.1601727,-141.2458048,-291.7867831,-1680.972613,-7014.854483,-2858.903023,3718.399963,-1870.108674,-6977.970877,62.05018372,68.64,60.18,68.72,-0.069248032,0.036474659,0,0.036474659
302,-33,0.9,3,42.66666667,634.5185185,-7802.85339,1400.348059,-426.7998503,-150.7340135,-482.0059987,-2548,-7246,-1808,3596,-2509,-6700,62.00750426,68.64,60.18,68.72,-0.042679465,0,0,0
302,-33,0.9,3,43.33333333,452,-7736,1298,-462,-154,-720,-3964,-8212,-858,3373,-2867,-6413,62,68.64,60.18,68.72,-0.007504258,0,0,0
302,-33,0.9,3,44,462,-7692,840,-474,-132,-1088,-4709.695839,-9109.550195,-277.6466998,3165.688389,-2792.270597,-6244.325419,62,68.64,60.18,68.72,0,0,0,0
302,-33,0.9,3,44.66666667,723.7166335,-7647.454629,838.439031,-454,-65.37467363,-1406.071805,-5044,-9738,52,2972,-2624,-6092,62,68.66737152,60.18,68.68649083,0,0.02737152,0,-0.033509166
302,-33,0.9,3,45.33333333,1222,-7584,838,-434,-14,-1651,-5032.929936,-9998.914732,168.7392924,2794.088116,-2266.316554,-5890.223456,62,68.74350592,60.18072923,68.61858077,0,0.0761344,0.000729227,-0.067910064
302,-33,0.9,3,46,1862,-7422,1188,-442,-84,-1788,-5000,-10152,216,2628,-1811,-5683,62,68.83807232,60.19210564,68.52104378,0,0.0945664,0.011376411,-0.097536986
302,-33,0.9,3,46.66666667,1815,-7534,1144.281139,-479.029703,-169.8313253,-1894.321305,-4792,-10232,76,2474,-1446,-5502,62,68.92035072,60.21292325,68.41128255,0,0.0822784,0.020817611,-0.109761237
302,-33,0.9,3,47.33333333,1768,-7646,1048,-510,-221,-1999,-4333.25148,-10280.96,47.86259542,2348.885474,-1075.595696,-5227.879527,62,68.95962112,60.23754552,68.32580634,0,0.0392704,0.024622274,-0.08547621
302,-33,0.9,3,48,1899.750428,-7603.696911,810.7188612,-500.1477273,-198,-2135.522337,-3764,-10304,38,2235,-742,-4896,62,68.88236494,60.26935797,68.2841078,0,-0.077256182,0.031812447,-0.041698542
302,-33,0.9,3,48.66666667,2214,-7510,626,-486,-175,-2265,-3268,-10028,46,2125,-494,-4528,62,68.79172007,60.30814801,68.23634246,0,-0.09064487,0.038790042,-0.04776534
302,-33,0.9,3,49.33333333,2958,-7336,642,-479,-184,-2353,-2872.187124,-9814.142379,149.5493134,2023.569708,-295.3773946,-4264.739402,62,68.75500351,60.35335311,68.13310651,0,-0.036716553,0.045205096,-0.103235947
302,-33,0.9,3,50,3056.62017,-7258.104906,1119.009114,-522.6401475,-237.2342694,-2373.535255,-2540,-9606,318,1927,-94,-4041,62,68.72953286,60.34101563,68.02874442,0,-0.025470654,-0.012337483,-0.104362089
302,-33,0.9,3,50.66666667,3116,-7184,1582,-592,-295,-2393,-2279.807761,-9339.76535,473.8263889,1833.814553,171.0781554,-3823.571797,62,68.72,60.3,67.93,0,-0.009532861,-0.041015625,-0.09874442
302,-33,0.9,3,51.33333333,3194,-7040,1328,-640,-311,-2461,-2030,-9094,622,1744,445,-3637,62,68.75500635,60.3,67.84637367,0,0.035006352,0,-0.083626328
302,-33,0.9,3,52,3900,-6890,308,-640,-284,-2519,-1728,-8936,736,1658,677,-3501,62,68.80959077,60.3,67.76208281,0,0.054584421,0,-0.084290862
302,-33,0.9,3,52.66666667,3724.740741,-6998.37037,349.8914398,-604.2222222,-289.9119171,-2510.962963,-1119.345587,-8957,749.6077844,1554.017761,931.5016735,-3291.954611,62,68.86012106,60.3,67.66794682,0,0.050530284,0,-0.094135987
302,-33,0.9,3,53.33333333,3399.259259,-7199.62963,442.0051018,-537.7777778,-301.8238342,-2496.037037,-600,-8978,754,1465,1103,-3032,62,68.90839982,60.28285365,67.57355066,0,0.048278766,-0.017146346,-0.094396168
302,-33,0.9,3,54,3224,-7308,534,-502,-311,-2488,-426.510917,-8861.049689,466,1422.816404,1150.286585,-2747.120134,62,68.95517446,60.24059841,67.47939632,0,0.046774638,-0.042255241,-0.09415434
302,-33,0.9,3,54.66666667,3307.098859,-7148.119737,627.7887969,-518.7142857,-314.4452471,-2531,-354,-8674,178,1377,1169,-2401,62,69.01581577,60.24,67.37875511,0,0.060641307,-0.000598412,-0.100641201
302,-33,0.9,3,55.33333333,3506,-6894,684,-538,-318,-2574,-866,-8542,230,1258,1111,-1916,62,69.03340525,60.24,67.30328907,0,0.017589484,0,-0.075466044
302,-33,0.9,3,56,4200.565016,-6673.880263,652,-540.6817539,-324.0579873,-2556.072581,-1302,-8480,300,1126,1112,-1596,62,68.97120293,60.24,67.26103541,0,-0.06220232,0,-0.042253661
302,-33,0.9,3,56.66666667,4802,-6548,620,-544,-337,-2517,-1343.30225,-8775.037037,466.754717,922.7443456,1123.770725,-1180.138894,61.97999593,68.9828618,60.22285365,67.19417509,-0.020004071,0.011658864,-0.017146346,-0.066860319
302,-33,0.9,3,57.33333333,4828,-6598,1064,-616,-427,-2448,-1365.428903,-9322.962963,680.3773585,680.8510071,1153.759398,-716.7121948,61.93069815,69.03920212,60.18059841,67.09921152,-0.049297781,0.056340322,-0.042255241,-0.094963573
302,-33,0.9,3,58,4957.971591,-6587.636364,832,-684.7213136,-476.3379374,-2355.285537,-1372,-9618,786,480,1199,-308,61.93,69.04,60.18,66.99855899,-0.000698148,0.000797883,-0.000598412,-0.100652525
302,-33,0.9,3,58.66666667,5068,-6560,600,-743,-518,-2284,-1338,-9430.007958,741.8323124,336.0435677,1335.271771,8.880866982,61.93645996,69.04738281,60.17446289,66.92438911,0.006459961,0.007382813,-0.005537109,-0.074169879
302,-33,0.9,3,59.33333333,4666,-6460,682,-782,-567,-2263,-1304,-9074,638,234,1534,287,61.99354004,69.11261719,60.12553711,66.88527896,0.057080078,0.065234375,-0.048925781,-0.039110152
302,-33,0.9,3,60,4198.098614,-6640,494,-827.4017857,-578.0946105,-2336.151292,-1372,-8660,404,182,1719,538,62,69.12,60.12,66.81093356,0.006459961,0.007382812,-0.005537109,-0.074345399
302,-33,0.9,3,60.66666667,3924,-6820,306,-854,-587,-2440,-1596,-8126,64,74,2060,875,62,69.12,60.12,66.72,0,0,0,-0.090933562
302,-33,0.9,4,61.33333333,4037.973486,-6804.625954,386.4963899,-850.5,-603.9265705,-2487.523942,-1370.068966,-7926.223353,-2.181408097,-23.11169605,2282.832915,1142.119675,62.03785874,69.15528055,60.12,66.66975295,0.037858742,0.035280548,0,-0.050247052
302,-33,0.9,4,62,4282,-6756,486,-847,-629,-2534,-966,-7780,-56,-122,2390,1285,62.06,69.22595563,60.11505394,66.6272642,0.022141258,0.07067508,-0.004946061,-0.042488748
302,-33,0.9,4,62.66666667,4690,-6272,512,-964,-674,-2609,-553.1512544,-7609.790239,-193.8280178,-245.0914307,2368.048571,1295.384434,62.06,69.34211005,60.0684022,66.58721544,0,0.11615442,-0.04665174,-0.040048757
302,-33,0.9,4,63.33333333,5645.50765,-5635.985765,338,-979.8105187,-764.280446,-2587.971429,-146,-7446,-358,-357,2312,1299,62.08214844,69.34523438,60.06,66.54304133,0.022148438,0.003124327,-0.008402198,-0.044174113
302,-33,0.9,4,64,6338,-5248,164,-985,-887,-2540,160,-7296,-488,-426,2142,1264,62.13,69.28,60.06,66.49,0.047851562,-0.065234375,0,-0.053041329
302,-33,0.9,4,64.66666667,6030.848557,-5738.232877,424.6223776,-967,-1025.089769,-2403.528571,422,-7344,-646,-497,1805,1224,62.13,69.12163496,60.01898438,66.39925277,0,-0.158365038,-0.041015625,-0.090747232
302,-33,0.9,4,65.33333333,5486,-6512,902,-949,-1192,-2294,421.5873126,-7466.331262,-504.4444444,-514.4533899,1569.801282,1202.670572,62.13,69.01639008,60,66.32554832,0,-0.105244887,-0.018984375,-0.07370445
302,-33,0.9,4,66,4962,-7036,1406,-961,-1410,-2336,420.2857363,-7626.387853,-241.5555556,-524.0173926,1378.162266,1187.057508,62.13,68.9767045,60,66.2759944,0,-0.039685577,0,-0.049553913
302,-33,0.9,4,66.66666667,4465.708182,-7926.925324,1200.631914,-995.375,-1401.939906,-2438.917982,418,-7706,-100,-536,1241,1181,62.13,68.92364535,60,66.27,0,-0.053059147,0,-0.005994405
302,-33,0.9,4,67.33333333,3967.629495,-9078.100288,693.1851028,-1049.333333,-1377.339749,-2611.243976,327.2976067,-7542,-168.7266553,-562.1569767,1175.013671,1231.043249,62.13,68.88,60,66.27,0,-0.043645352,0,0
302,-33,0.9,4,68,3583.736061,-10073.72511,46.64574069,-1099.125,-1335.569718,-2830.697982,238,-7378,-330,-580,1087,1372,62.16785874,68.88,60.03785874,66.27,0.037858742,0,0.037858742,0
302,-33,0.9,4,68.66666667,3430,-10498,-576,-1121,-1276,-3075,8333,-9476,-850.2733447,-141.5,-2113.08489,3310.456751,62.19,68.86828125,60.06,66.27,0.022141258,-0.01171875,0.022141258,0
302,-33,0.9,4,69.33333333,4840,-9554,-1182,-931,-1047,-3400,16428,-11574,-1278,297,-5238,5158,62.19,68.74796875,60.06,66.27,0,-0.1203125,0,0
302,-33,0.9,4,70,5748.883907,-8342.939324,-851,-844.8711944,-1070.584711,-3504.389098,14112.52025,-10059.92593,281.1851852,-351.6666667,-5227.761523,4873.685654,62.19,68.67269531,60.06,66.24152832,0,-0.075273437,0,-0.02847168
