locomotion_mode,terrain_info,walk_speed_info,gait_phase,gait_percentage,left_accel_x,left_accel_y,left_accel_z,left_gyro_x,left_gyro_y,left_gyro_z,right_accel_x,right_accel_y,right_accel_z,right_gyro_x,right_gyro_y,right_gyro_z,left_hip_angle,left_knee_angle,right_hip_angle,right_knee_angle,left_hip_angle_vel,left_knee_angle_vel,right_hip_angle_vel,right_knee_angle_vel
301,33,0.9,1,0,5332,-9106,458,78,-243,2074,-1810.000559,-7985.724138,968.6717148,-405.7986386,105,382.212766,63.38103994,69.68,59.7,65.86253906,0.071039935,0,-0.000598412,-0.047460938
301,33,0.9,1,0.540540541,4980,-9290,404,-3,-380,1844,-1852,-7988,942,-426,105,388,63.46648838,69.68,59.70444444,65.83,0.085448442,0,0.004444444,-0.032539062
301,33,0.9,1,1.081081081,4422,-9356,460,-84,-503,1485,-1926,-7972,890,-443,109,380,63.51223926,69.68,59.74868313,65.83,0.045750883,0,0.044238683,0
301,33,0.9,1,1.621621622,3957.319417,-9204.074074,441.8518519,-130.6549513,-484.983482,1231.503399,-1945.377152,-8020,882.5320687,-462.0700887,118.8455857,369.2729184,63.52,69.66144531,59.76,65.83,0.00776074,-0.018554688,0.011316872,0
301,33,0.9,1,2.162162162,3515.788868,-8921.925926,408.1481481,-166.2903261,-429.6336307,1011.053222,-1962,-8068,876,-482,131,358,63.52,69.60089844,59.76,65.83,0,-0.060546875,0,0
301,33,0.9,1,2.702702703,2936,-8770,390,-208,-335,703,-2012.387097,-8034.371795,853.4553322,-503.0880247,141.4654472,349.1708848,63.54690603,69.6,59.76,65.83,0.026906026,-0.000898437,0,0
301,33,0.9,1,3.243243243,1651.319797,-12823,1036.706429,-283.1111955,1143.231417,53.78321011,-2050,-7982,808,-522,150,339,63.59375293,69.6,59.75505394,65.83,0.0468469,0,-0.004946061,0
301,33,0.9,1,3.783783784,718,-16876,2152,-333,2564,-700,-1996,-7948,680,-535,155,321,63.64302118,69.6,59.7084022,65.83,0.049268258,0,-0.04665174,0
301,33,0.9,1,4.324324324,3234,-13409.42582,3387.293571,-135.5,1747.429263,-1376.301018,-2007.844311,-7974,666.3464991,-541.2993348,146,314.4547418,63.65,69.58150777,59.7,65.80785156,0.006978816,-0.018492231,-0.008402198,-0.022148437
301,33,0.9,1,4.864864865,5750,-8762,4154,62,662,-1752,-2042,-8000,662,-547,137,308,63.65,69.52,59.7,65.76,0,-0.061507769,0,-0.047851563
301,33,0.9,1,5.405405405,4118,-6992,2624,-345,263,-1034,-2222,-7924,846,-556,140,291,63.65,69.46129855,59.7,65.76,0,-0.058701454,0,0
301,33,0.9,1,5.945945946,1570,-6444,1658,-550,177,-885,-2104,-7980,836.8746736,-592.6553288,168.063709,253.106833,63.65,69.44,59.7,65.76,0,-0.021298546,0,0
301,33,0.9,1,6.486486486,1408.52356,-6875.407407,382.0916224,-498.402686,67.42157749,-986.1111111,-1986,-8036,816,-639,194,226,63.65,69.44,59.7,65.76,0,0,0,0
301,33,0.9,1,7.027027027,1324.26178,-7676.592593,-934.2875221,-388.5831497,-44.01143347,-1173.888889,-2000,-8028.740741,754.5163018,-668.1039772,194.4163361,235.5925926,63.64389932,69.4260556,59.7,65.76,-0.006100676,-0.013944403,0,0
301,33,0.9,1,7.567567568,1300,-8108,-1540,-288,-95,-1275,-2026,-8015.259259,664.2539555,-693.0855456,194.5853292,253.4074074,63.61659042,69.36363525,59.7,65.76,-0.027308902,-0.062420347,0,0
301,33,0.9,1,8.108108108,1938,-7906,-96,-222,48,-1252,-2040,-8008,616,-720,195,263,63.58811281,69.29854356,59.7,65.76,-0.028477614,-0.065091688,0,0
301,33,0.9,1,8.648648649,2012.344617,-7929,731.100955,-181.2391304,21.40679825,-1255.349882,-2007,-8018.947368,614.0712127,-754.6513028,216.6754625,253.8333333,63.58,69.28,59.7,65.76,-0.008112809,-0.018543562,0,0
301,33,0.9,1,9.189189189,2082,-7952,1112,-162,-31,-1265,-1974,-8034,612,-786,238,243,63.58,69.28,59.7,65.76,0,0,0,0
301,33,0.9,1,9.72972973,2952.148515,-7588,-177,-214.5,-118.4067982,-1473.150118,-1990.129845,-8042.052632,482.0152672,-806.1350048,238,241.0964912,63.58,69.2546875,59.7,65.76,0,-0.0253125,0,0
301,33,0.9,1,10.27027027,3756,-7224,-1466,-267,-180,-1675,-2032,-8046,354,-822,238,239,63.58,69.2,59.7,65.76,0,-0.0546875,0,0
301,33,0.9,1,10.81081081,2776,-7822,-1142,-130,-107,-1603,-2238.583535,-8030.131579,370,-834.3302213,236.5,219.8151164,63.58,69.2,59.7,65.76,0,0,0,0
301,33,0.9,1,11.35135135,2064,-8408,-136,-12,-84,-1513,-2490,-8010,386,-847,235,186,63.58,69.19483378,59.7,65.76,0,-0.005166225,0,0
301,33,0.9,1,11.89189189,1140,-7698,378,-45,-54,-1671,-2598,-8004,318,-866,251,145,63.58,69.13698803,59.7,65.76,0,-0.05784575,0,0
301,33,0.9,1,12.43243243,1954.764807,-7694.514064,178.7033898,-40.595791,-8.337116062,-1778.55814,-2364,-8042,260,-896,310,38,63.58,69.07873099,59.7,65.76,0,-0.058257033,0,0
301,33,0.9,1,12.97297297,2866,-7692,-90,-31,25,-1831,-1835.168488,-8361.05639,245.4337861,-902.5661765,323.6423087,-82.17795988,63.58,69.04,59.7,65.76,0,-0.038730992,0,0
301,33,0.9,1,13.51351351,3013.74388,-7680.788187,-225.640678,-15.7811979,31.86195689,-1806.453743,-1069.871989,-9012.321758,238.8994923,-905.4971777,331.4018758,-211.8248532,63.58,69.04,59.7,65.76,0,0,0,0
301,33,0.9,1,14.05405405,3096.662714,-7659.609509,-348.3457627,8.036609487,35.73905215,-1740.881228,-381.1394959,-9718.426246,231.9154523,-908.42959,337.2105049,-315.55932,63.58,69.04,59.7,65.76,0,0,0,0
301,33,0.9,1,14.59459459,3153.109608,-7632.836738,-448.2305085,38.84501583,38.38516896,-1646.381842,-82,-10202,216,-915,345,-358,63.58,69.04,59.7,65.76,0,0,0,0
301,33,0.9,1,15.13513514,3221.437668,-7604.842645,-515.4101695,75.03561478,41.55419052,-1535.054971,-406,-10390.33304,3.19790487,-967.4265791,354.6032108,-319,63.58,69.01047832,59.7,65.78583147,0,-0.029521677,0,0.025831468
301,33,0.9,1,15.67567568,3340,-7580,-540,115,47,-1419,-730,-10606,-198,-1020,368,-280,63.58,68.96,59.7,65.83,0,-0.050478323,0,0.044168532
301,33,0.9,1,16.21621622,3680.20615,-7562.299344,-426.1811691,171.5373678,56.82471679,-1268.968246,-594,-11310,166,-1026,399,-307,63.58,69.0146875,59.7,65.83,0,0.0546875,0,0
301,33,0.9,1,16.75675676,4148.103075,-7544.916019,-204.8067827,242.9757515,72.09243502,-1081.638198,-40,-11870,750,-984,338,-264,63.57242798,69.04,59.7,65.83,-0.007572016,0.0253125,0,0
301,33,0.9,1,17.2972973,4384,-7516,-56,306,93,-908,-14.95301603,-11703.55556,852.6187625,-952.1998716,348.9016659,-211.0441407,63.52757202,69.04,59.7,65.83,-0.044855967,0,0,0
301,33,0.9,1,17.83783784,4275,-7373.341906,-25.86606139,355.9253353,140.48065,-760.9156888,-5.982847097,-11394.44444,911.3093812,-925.6744534,378.6922206,-153.1084215,63.52,69.04,59.7,65.80785156,-0.007572016,0,0,-0.022148437
301,33,0.9,1,18.37837838,4166,-7250,10,393,185,-637,16,-11228,930,-911,423,-100,63.52,69.04,59.7,65.76,0,0,0,-0.047851563
301,33,0.9,1,18.91891892,4246,-7638,266,412,197,-550,466.6981258,-11702,843,-907.4947991,556.3860149,-62.83458121,63.56101563,68.9853125,59.7,65.80785156,0.041015625,-0.0546875,0,0.047851563
301,33,0.9,1,19.45945946,4381.983051,-7601,578.4972521,401.248366,189.7368421,-394.7428877,914,-12176,756,-903,729,-15,63.58,68.96,59.7,65.82716393,0.018984375,-0.0253125,0,0.019312363
301,33,0.9,1,20,4472,-7564,816,377,173,-211,932,-11156,878,-811,843,121,63.58,68.96,59.7,65.80289368,0,0,0,-0.024270251
301,33,0.9,1,20.54054054,4346.597138,-7618,916.5302594,322.1377388,123.2631579,-25.5676307,94.20762155,-9575.089362,1163.305588,-778.8069719,1075.586085,263.3423627,63.58,68.96,59.7,65.77277986,0,0,0,-0.03011381
301,33,0.9,1,21.08108108,4058,-7672,960,259,83,122,-1084,-8558,1370,-766,1273,430,63.58,68.96,59.7,65.76,0,0,0,-0.012779865
301,33,0.9,1,21.62162162,3452,-7596,538,223,84,190,-1756.96267,-9554.837998,1094,-817.423913,1335.934489,678.3392071,63.58,68.96,59.7,65.76,0,0,0,0
301,33,0.9,1,22.16216216,3144.347199,-7685,115.2749775,259.745283,102.1028421,183.5,-2112,-11558,818,-880,1362,939,63.58,68.96,59.7,65.76,0,0,0,0
301,33,0.9,1,22.7027027,3008,-7774,-120,318,139,177,-2138,-14328,922,-895,840,1133,63.58,68.96,59.7,65.76,0,0,0,0
301,33,0.9,1,23.24324324,3116,-7710,-52,358,199,181,-3420.698785,-12976.26155,-420,-996.049405,-645.0205845,2022.337266,63.58,68.96,59.7,65.76,0,0,0,0
301,33,0.9,1,23.78378378,3653.866712,-7616.313581,411.7960074,357.2285714,186.3053097,246.983956,-4702,-11290,-1762,-1156,-1774,2985,63.58,68.96,59.7,65.76,0,0,0,0
301,33,0.9,1,24.32432432,4220,-7552,842,355,161,372,-4725.240343,-10693.73845,-161,-1323.515036,-1758.354196,3389.931324,63.58,68.96,59.7,65.76,0,0,0,0
301,33,0.9,1,24.86486486,4417.155844,-7543.211765,874.4840085,316.1591176,125.0828372,534.4137767,-4746,-10432,1440,-1470,-1706,3572,63.57952402,68.95854592,59.7,65.76,-0.000475983,-0.00145408,0,0
301,33,0.9,1,25.40540541,4502,-7540,886,253,86,734,-4840,-11414,1398,-1548,-694,3535,63.57441417,68.94469632,59.7,65.76,-0.005109851,-0.0138496,0,0
301,33,0.9,1,25.94594595,4214,-7574,816,201,58,951,-4893.592706,-11115,840.7863253,-1535.897917,241.8508922,3512.540672,63.56430435,68.92239872,59.69304616,65.75188719,-0.010109813,-0.0222976,-0.006953836,-0.008112809
301,33,0.9,1,26.48648649,3799.610985,-7577.009378,637.2078149,191.3378378,43.4787234,1069.912029,-4954,-10816,226,-1511,1102,3502,63.54994444,68.89933312,59.66863678,65.72340958,-0.014359917,-0.0230656,-0.024409383,-0.028477614
301,33,0.9,1,27.02702703,3470,-7580,392,188,37,1147,-5155.64557,-10909.16129,68.33859397,-1469.597736,1893.95939,3614.289157,63.53208427,68.88317952,59.64522915,65.69610068,-0.017860162,-0.0161536,-0.02340763,-0.027308902
301,33,0.9,1,27.56756757,3368,-7612,140,220,62,1190,-5314,-11072,4,-1428,2566,3735,63.50745729,68.88,59.64,65.69,-0.02462698,-0.00317952,-0.005229151,-0.006100676
301,33,0.9,1,28.10810811,3102,-7712,90,277,85,1234,-5038,-11222,154,-1408,3046,3745,63.45886359,68.88,59.64,65.69,-0.048593707,0,0,0
301,33,0.9,1,28.64864865,3102.185185,-7782.261438,198.6499187,315.3164557,94.80179761,1271.975404,-4393.25103,-11149.93904,34.6120797,-1381.975001,3502.834412,3739.948276,63.41877357,68.88,59.64,65.70824286,-0.040090013,0,0,0.018242858
301,33,0.9,1,29.18918919,3102.814815,-7838.797386,421.0776152,345.6582278,101.5120099,1309.064091,-3590,-10974,-238,-1361,3764,3729,63.38,68.88,59.64,65.76,-0.038773574,0,0,0.051757142
301,33,0.9,1,29.72972973,3104,-7862,602,358,104,1359,-2912,-10522,-796,-1353,3779,3710,63.32635131,68.88,59.64,65.87033297,-0.05364869,0,0,0.110332965
301,33,0.9,1,30.27027027,3118,-7712,688,353,77,1450,-2292.009456,-10235.02338,-1392.282205,-1341.430891,3546.071312,3734.979339,63.31,68.88,59.64,65.91,-0.01635131,0,0,0.039667035
301,33,0.9,1,30.81081081,3058,-7730,584,355,75,1511,-1840,-9994,-1880,-1322,3099,3775,63.31,68.88,59.64,65.91,0,0,0,0
301,33,0.9,1,31.35135135,2892.293984,-7735.416122,687.7037037,351.116884,73.05494538,1551.687177,-1591.345886,-9775.543352,-2204.411239,-1253.651988,2550.490307,3810.520661,63.28264401,68.85290454,59.64,65.97383065,-0.027355994,-0.027095461,0,0.063830653
301,33,0.9,1,31.89189189,2660.350732,-7738.819172,880.2962963,340.7893235,70.82048508,1584.187839,-1478,-9514,-2362,-1164,1942,3831,63.25,68.79503358,59.64059841,66.05,-0.032644006,-0.057870955,0.000598412,0.076169347
301,33,0.9,1,32.43243243,2510,-7740,984,326,67,1607,-1508.05814,-8949.609528,-2248.888481,-1096.263373,1393.175258,3811.666667,63.25,68.7364136,59.68285365,66.05,0,-0.058619988,0.042255241,0
301,33,0.9,1,32.97297297,2474.13003,-7739,977.2758621,287.2710593,46.9919987,1623.866812,-1588,-8376,-2060,-1043,900,3767,63.24325174,68.72,59.7,66.05566798,-0.006748259,-0.016413597,0.017146346,0.005667985
301,33,0.9,1,33.51351351,2434,-7738,964,243,21,1632,-1874,-8102,-1908,-1012,513,3672,63.19440469,68.72,59.7,66.10254146,-0.048847048,0,0,0.046873471
301,33,0.9,1,34.05405405,2075.516156,-7812,941.7241379,220.8328126,3.246575342,1620.18318,-2188.941275,-7713.26584,-1887.141378,-973.8315344,173.7171081,3547.665994,63.14212914,68.68746094,59.7244043,66.1824996,-0.052275557,-0.032539063,0.024404297,0.079958143
301,33,0.9,1,34.59459459,1708,-7886,926,202,-6,1593,-2370,-7290,-1868,-921,-142,3390,63.11,68.64,59.76,66.27626675,-0.032129136,-0.047460937,0.035595703,0.093767151
301,33,0.9,1,35.13513514,1654,-7826,966,181,10,1536,-2289.855051,-6931.103335,-1764.217486,-820.1377263,-436.8363644,3175.097806,63.11,68.64,59.76,66.32378244,0,0,0,0.047515695
301,33,0.9,1,35.67567568,1869,-7796.782609,998.8947368,149.1397599,12.97297297,1481.702055,-2102,-6542,-1574,-688,-734,2909,63.10142777,68.62330959,59.77251781,66.38582824,-0.008572234,-0.016690413,0.01251781,0.062045794
301,33,0.9,1,36.21621622,2084,-7784,1016,110,14,1452,-1564.243763,-6046.02384,-1165.980119,-550.6263686,-1057.088853,2588.425395,63.05821431,68.56306127,59.81770405,66.47266611,-0.043213453,-0.060248321,0.045186241,0.086837876
301,33,0.9,2,36.75675676,2060,-7814,1016,65,-19,1459,-1004,-5414,-862,-404,-1410,2238,63.01776903,68.56,59.82,66.5562037,-0.040445286,-0.003061266,0.00229595,0.08353759
301,33,0.9,2,37.2972973,1886.996959,-7846.279531,869.2592593,66.70872567,-21.95667365,1441.201056,-761.7502562,-4457.232663,-863.3902267,-251.5569489,-1852.683362,1900.697068,62.97565439,68.55920212,59.82059841,66.65139121,-0.042114641,-0.000797883,0.000598412,0.095187504
301,33,0.9,2,37.83783784,1555.81848,-7879.632615,596.7407407,71.52856246,-23.53389238,1396.068779,-584.6529059,-3274.14463,-868.336009,-95.44572285,-2331.42,1559.972387,62.9243619,68.5028618,59.86285365,66.80238355,-0.051292489,-0.056340322,0.042255241,0.150992336
301,33,0.9,2,38.37837838,1232,-7912,450,79,-24,1336,-516,-2230,-878,52,-2698,1203,62.91,68.48,59.88,66.89126343,-0.014361897,-0.022861795,0.017146346,0.088879881
301,33,0.9,2,38.91891892,927.0572973,-7942.832744,453,105.3860169,-20.08653846,1230.224405,-674,-1482,-1116,183,-2902,814,62.91,68.48,59.88,66.92929581,0,0,0,0.038032386
301,33,0.9,2,39.45945946,720,-7972,456,147,-13,1093,-912.0628311,-1109.880886,-1004.008639,347.4784694,-3046.557522,326.6932413,62.88,68.48,59.88,67.01478655,-0.03,0,0,0.085490738
301,33,0.9,2,40,662.7027027,-7997.693099,359,192.5992424,-3.913461538,959.9466179,-1138,-946,-732,543,-3118,-227,62.85,68.48,59.881139,67.10146888,-0.03,0,0.001139005,0.086682325
301,33,0.9,2,40.54054054,640,-8024,262,239,2,830,-1266,-1212,-46,788,-3117,-846,62.85,68.48,59.91204323,67.14559939,0,0,0.030904224,0.044130512
301,33,0.9,2,41.08108108,667.7358491,-8064.271186,416.5042017,285.6757576,-1.378571429,720.8760203,-1306,-1512,326,948,-3076,-1256,62.85,68.4925,59.96546353,67.18735723,0,0.0125,0.053420297,0.041757839
301,33,0.9,2,41.62162162,724,-8090,726,312,-9,609,-1447.924704,-1827.470226,761.9944065,1131.236853,-2953.557506,-1787.863201,62.85,68.5565625,60.04820479,67.23081077,0,0.0640625,0.082741261,0.043453544
301,33,0.9,2,42.16216216,804,-8038,1150,295,-24,468,-1672,-2006,1018,1327,-2771,-2335,62.815,68.56,60.1,67.27660294,-0.035,0.0034375,0.051795213,0.045792171
301,33,0.9,2,42.7027027,913.4236182,-8053.181818,1420.185556,241.355404,-35.34476572,367.3538027,-1991.262178,-1834,910.7399103,1530.619091,-2563.259627,-2801.703861,62.78,68.55791573,60.12,67.33437673,-0.035,-0.002084266,0.02,0.057773786
301,33,0.9,2,43.24324324,1002,-8070,1564,171,-46,293,-2260,-1662,750,1737,-2326,-3231,62.78,68.50841441,60.12,67.43002077,0,-0.049501323,0,0.095644044
301,33,0.9,2,43.78378378,1034,-8072,1586,115,-58,247,-2338.534048,-1837.880068,663.3495838,1941.236587,-2051.659177,-3643.986117,62.75287808,68.45158559,60.12885406,67.49473388,-0.027121921,-0.056828821,0.008854061,0.064713102
301,33,0.9,2,44.32432432,1104,-8100,1424,23,-85,188,-2418,-2076,572,2137,-1805,-4003,62.65497456,68.40208427,60.17220843,67.53734002,-0.097903521,-0.049501323,0.043354366,0.042606144
301,33,0.9,2,44.86486486,901,-8091,1181.93956,-9.960486881,-131.2832779,127.2583113,-2666.827784,-2166.897294,437.0896589,2313.130697,-1643.753913,-4290.876015,62.65,68.4,60.20801991,67.65603656,-0.004974557,-0.002084266,0.035811485,0.118696542
301,33,0.9,2,45.40540541,698,-8082,1028,-33,-162,59,-3050,-2254,236,2483,-1519,-4512,62.64921387,68.40060547,60.2436511,67.78690401,-0.000786133,0.000605469,0.035631191,0.130867453
301,33,0.9,2,45.94594595,736.687441,-8089.259259,1082.444444,-55.16249227,-149.8148148,-35.41754985,-3544,-2410,-168,2656,-1424,-4650,62.59623535,68.44962891,60.28112913,67.83383981,-0.052978516,0.049023438,0.037478023,0.046935795
301,33,0.9,2,46.48648649,843.374882,-8102.740741,1183.555556,-75.90553048,-127.1851852,-143.3746591,-3701.057715,-2816.152683,-361.6362563,2746.244996,-1382.546209,-4730.18471,62.58,68.51037109,60.31871562,67.9031924,-0.016235352,0.060742187,0.037586498,0.069352587
301,33,0.9,2,47.02702703,1004,-8110,1238,-104,-115,-231,-3762,-3338,-540,2793,-1365,-4768,62.58,68.55939453,60.35622187,68.00296182,0,0.049023438,0.03750625,0.099769428
301,33,0.9,2,47.56756757,1426,-7982,1218,-156,-118,-285,-3682,-3782,-838,2803,-1461,-4769,62.55587844,68.51647466,60.39450606,68.06120946,-0.024121561,-0.042919872,0.038284182,0.058247634
301,33,0.9,2,48.10810811,1348.295455,-8010.251814,1015.685714,-175.9401633,-99,-346.2432125,-3986.183663,-4358.916946,-1445.722694,2778.227598,-1756.192154,-4610.879098,62.51194931,68.48237343,60.43328598,68.10614272,-0.04392913,-0.034101231,0.038779924,0.044933259
301,33,0.9,2,48.64864865,1218,-8058,830,-191,-80,-409,-4576,-4914,-1870,2721,-2003,-4318,62.4672139,68.53505553,60.47147172,68.1476121,-0.044735411,0.052682102,0.038185738,0.041469377
301,33,0.9,2,49.18918919,1095.147636,-8103.963356,859.744,-209.7117685,-87.696,-465.3198077,-5350.555467,-5337.342109,-1814.6875,2593.593804,-2035.710534,-4019.205051,62.43681364,68.57687901,60.50784614,68.19370914,-0.030400262,0.041823478,0.036374419,0.046097044
301,33,0.9,2,49.72972973,954.3010909,-8157.178775,930.672,-229.3092062,-106.048,-517.2246381,-6362.04923,-5713.70549,-1693,2366.327203,-2058.437141,-3671.896527,62.41233687,68.60934616,60.54279885,68.24085783,-0.024476761,0.032467149,0.03495271,0.047148687
301,33,0.9,2,50.27027027,821.4807273,-8207.612517,1015.328,-248.8507596,-127.952,-570.0695645,-7356.018379,-6044.716126,-1571.3125,2076.897001,-2071.695178,-3291.139739,62.39500292,68.63304257,60.57727495,68.28473216,-0.017333951,0.023696417,0.034476107,0.043874329
301,33,0.9,2,50.81081081,722.7069091,-8245.230839,1086.256,-267.3948754,-146.304,-629.2096607,-8078,-6332,-1516,1763,-2076,-2892,62.39,68.64,60.6228125,68.32919098,-0.005002923,0.006957426,0.045537546,0.044458822
301,33,0.9,2,51.35135135,684,-8260,1116,-284,-154,-700,-8468,-6560,-1774,1368,-1536,-2450,62.39,68.64,60.715,68.37667863,0,0,0.0921875,0.04748765
301,33,0.9,2,51.89189189,927.4123615,-8147.481481,953.1851852,-301.1800495,-146.4814815,-821.1779935,-8363.086181,-6727.783998,-1963.24611,1070.714394,-1140.658466,-2023.710827,62.39,68.65445899,60.73,68.44996822,0,0.014458986,0.015,0.073289594
301,33,0.9,2,52.43243243,1405.49139,-7938.518519,650.8148148,-317.0344692,-132.5185185,-964.0889968,-8119.95014,-6865.114221,-2117.956388,814.1791114,-803.6440434,-1607.153159,62.39,68.70981147,60.73,68.54571197,0,0.055352487,0,0.095743747
301,33,0.9,2,52.97297297,1740,-7826,488,-324,-125,-1033,-7846,-6922,-2182,558,-461,-1201,62.355,68.75972269,60.75215324,68.60303017,-0.035,0.049911221,0.022153236,0.057318202
301,33,0.9,2,53.51351351,1863.161093,-7830.293578,505.5714286,-311.1698113,-141.5,-1027,-7575.199408,-6790.091816,-2150.336493,287.804008,-75.64414011,-786.5755457,62.32,68.81061312,60.79797314,68.64960621,-0.035,0.050890427,0.0458199,0.046576037
301,33,0.9,2,54.05405405,1918,-7842,548,-292,-158,-1021,-7216,-6540,-2080,20,288,-425,62.32,68.86834416,60.83969409,68.69626119,0,0.057731036,0.041720951,0.046654981
301,33,0.9,2,54.59459459,1739,-7946.706422,693.1894155,-278.3301887,-157.7738095,-1052.679245,-6651.658411,-6170.908184,-1977.955659,-306.6704438,653.3385812,-207.3662195,62.33623535,68.88,60.87928062,68.75001653,0.016235352,0.011655843,0.039586536,0.053755341
301,33,0.9,2,55.13513514,1560,-8044,838,-271,-157,-1094,-5858,-5920,-1760,-501,857,51,62.38921387,68.88,60.91635906,68.79938574,0.052978516,0,0.037078432,0.049369211
301,33,0.9,2,55.67567568,1750,-7954,870,-278,-134,-1108,-4348.753561,-5998.646952,2884.292151,457,615.5,1045.623408,62.39,68.88,60.95989379,68.8,0.000786133,0,0.043534731,0.00061426
301,33,0.9,2,56.21621622,2299.227437,-8015,894.2177419,-295.4420281,-134.9247788,-1074.740196,-3284,-6202,7374,1415,374,1852,62.39229595,68.87693873,60.98,68.8,0.00229595,-0.003061266,0.020106213,0
301,33,0.9,2,56.75675676,2980,-8076,918,-323,-138,-993,-4800,-6850,3694,-510,1613,1799,62.43748219,68.81669041,60.98,68.8,0.045186241,-0.060248321,0,0
301,33,0.9,2,57.2972973,3468,-7722,948,-365,-192,-778,-4562,-8674,4104,-735,1272,1306,62.45,68.8,60.99391602,68.8,0.01251781,-0.016690413,0.013916016,0
301,33,0.9,2,57.83783784,3474.448053,-7869,1065.007692,-414.1624849,-196.8539913,-593.674264,384,-8172,-1674,-1576,883,699,62.45,68.8,61.03932617,68.8,0,0,0.045410156,0
301,33,0.9,3,58.37837838,3480,-8016,1160,-467,-201,-414,-14.38028367,-7424.86859,-3130.137911,-1381.077891,416.8905286,892.310364,62.45,68.8,61.04,68.75253906,0,0,0.000673828,-0.047460937
301,33,0.9,3,58.91891892,3621.875862,-7860,1128.810345,-535.2311321,-218.8887103,-217.2581515,-1006.538345,-6597.178463,-4012.957844,-996.3780037,-45.49918015,1275.84295,62.45,68.8,61.04,68.72,0,0,0,-0.032539063
301,33,0.9,3,59.45945946,3758,-7704,1052,-577,-257,-18,-2288,-6114,-4310,-722,-255,1555,62.45,68.8,61.04,68.72,0,0,0,0
301,33,0.9,3,60,3386,-7913.63999,735.1896552,-560.5,-380.7557846,167.5794264,-4928.155514,-5969.691874,-3328.109301,-613.2040396,-51.7649919,1674.192507,62.44642542,68.80659475,61.04,68.71632155,-0.003574583,0.006594749,0,-0.003678453
301,33,0.9,3,60.54054054,3014,-8406,464,-544,-603,365,-6906,-5910,-1454,-564,209,1729,62.42891362,68.83647466,61.04,68.69685698,-0.017511794,0.02987991,0,-0.01946457
301,33,0.9,3,61.08108108,4870,-9512,1320,-544,-971,611,-5622,-6642,1370.109301,-598.4339623,314.2649919,1497.09181,62.40576029,68.86879707,61.04,68.66684909,-0.023153332,0.03232241,0,-0.03000789
301,33,0.9,3,61.62162162,2440,-11854.94401,2007.436557,-532.1900452,-1057.098312,1003.328464,-4338,-7374,3302,-664,362,1188,62.38677389,68.88,61.04,68.63144126,-0.018986402,0.011202931,0,-0.035407825
301,33,0.9,3,62.16216216,10,-13508,2362,-504,-1104,1258,-4502,-7227,1430.872856,-762.0660377,360.1038961,1073.681628,62.36893764,68.88,61.04,68.56999164,-0.017836244,0,0,-0.061449624
301,33,0.9,3,62.7027027,547,-12673.90735,771,-423.4399216,-1147.415404,1151,-4666,-7080,-770,-829,354,972,62.35041838,68.88,61.04,68.56,-0.018519269,0,0,-0.009991639
301,33,0.9,3,63.24324324,1084,-11742,-820,-323,-1169,1044,-4270,-7550,-1198,-604,282,819,62.33416125,68.88,61.04,68.56,-0.016257126,0,0,0
301,33,0.9,3,63.78378378,172.954608,-11583.09265,-370.7248521,-261.538952,-1158.638693,1128.5,-4046,-7568,-754,-496,223,728,62.32311144,68.88,61.04,68.52133707,-0.011049815,0,0,-0.038662926
301,33,0.9,3,64.32432432,-1056,-11522,390,-202,-1132,1213,-4338.012795,-7395,-155.7632823,-440.9079595,170.2391676,621.2113948,62.32,68.8765625,61.04,68.47345266,-0.003111435,-0.0034375,0,-0.047884409
301,33,0.9,3,64.86486486,-1536,-11830,1028,-125,-1049,985,-4740,-7222,214,-401,142,494,62.32,68.8125,61.04,68.44025977,0,-0.0640625,0,-0.033192899
301,33,0.9,3,65.40540541,-2142.204805,-12353.48107,724,-216.5,-969.5404613,732.5716054,-4955.987205,-7297.083333,216.9958848,-369.5129382,162,301.8787879,62.32,68.8,61.04,68.4128442,0,-0.0125,0,-0.027415568
301,33,0.9,3,65.94594595,-2736,-12700,420,-308,-926,515,-5062,-7426,218,-336,182,134,62.32,68.8,61.04,68.40012101,0,0,0,-0.012723189
301,33,0.9,3,66.48648649,-3180,-12248,748,-273,-962,386,-4360,-7566.916667,-91.81132075,-285.1880219,158.6287375,58.13143177,62.32,68.8,61.0044043,68.4,0,0,-0.035595703,-0.000121009
301,33,0.9,3,67.02702703,-2539.145299,-11972.25038,853.1252236,-327.7470893,-917.9915058,106.2592833,-3658,-7654,-422,-212,106,8,62.32,68.8,60.98,68.4,0,0,-0.024404297,0
301,33,0.9,3,67.56756757,-1340,-11636,894,-451,-805,-317,-4086,-7448,-446,-82,3,-25,62.32,68.8,60.98,68.4,0,0,0,0
301,33,0.9,3,68.10810811,-21.99608524,-10232.51955,391,-740.9064272,-421.6063644,-909.0566286,-4580,-7368,10,-30,-5,-85,62.30285365,68.8,60.98,68.4,-0.017146346,0,0,0
301,33,0.9,3,68.64864865,1500,-9076,-112,-1046,333,-1704,-4605.252336,-7351.123171,-28.78092668,-12.07330412,6.666666667,-212.5527041,62.26059841,68.8,60.98,68.4,-0.042255241,0,0,0
301,33,0.9,3,69.18918919,3120,-10760,12,-1170,1899,-2803,-4618.292835,-7341.822914,-116.8951867,-1.289177315,28.33333333,-385.9892691,62.26,68.75253906,60.98,68.4,-0.000598412,-0.047460938,0,0
301,33,0.9,3,69.72972973,3519.843212,-14076.92838,471.6099734,-1056.176346,3099.059216,-3901.713087,-4622,-7334,-212,16,40,-531,62.26,68.72,60.98,68.40659475,0,-0.032539062,0,0.006594749
301,33,0.9,3,70.27027027,3666,-16370,1284,-853,3999,-4814,-4324,-7326,-306,62,7,-619,62.26,68.72,60.98,68.46879707,0,0,0,0.06220232
301,33,0.9,3,70.81081081,2260,-15996,2626,-654,4535,-5357,-4313.174817,-7408,-138,123.804614,-30.64423077,-698.1640411,62.26,68.6946875,60.98,68.48,0,-0.0253125,0,0.011202931
301,33,0.9,3,71.35135135,2901.132862,-14075.92664,2469.647531,-694.5,4481.252804,-5615.838975,-4310,-7490,30,180,-65,-791,62.26,68.64,60.98,68.48,0,-0.0546875,0,0
301,33,0.9,3,71.89189189,3888,-11874,2144,-735,4342,-5754,-4530,-7426,-163,208.0320555,-94.42307692,-946.2446379,62.26,68.64,60.98,68.48,0,0,0,0
301,33,0.9,3,72.43243243,4526.600898,-10787.10857,1490.352469,-652.3006993,3750.422389,-5809.297895,-4750,-7362,-356,240,-110,-1133,62.25422959,68.64,60.97505394,68.48659475,-0.005770405,0,-0.004946061,0.006594749
301,33,0.9,3,72.97297297,5090,-10276,1006,-516,2841,-5832,-4260,-7404,-228,330,-108,-1316,62.19980256,68.64,60.9284022,68.54879707,-0.05442703,0,-0.04665174,0.06220232
301,33,0.9,3,73.51351351,5590.473288,-10281,1216.566933,-387.5924784,2001.891346,-5788.130566,-4072.838843,-7485.710526,-188.9814529,394.2742481,-148.2641509,-1420.907829,62.19,68.64,60.92,68.56,-0.009802565,0,-0.008402198,0.011202931
301,33,0.9,3,74.05405405,6074,-10286,1596,-306,1097,-5677,-3930,-7542,-174,455,-196,-1506,62.19,68.64,60.92,68.56,0,0,0,0
301,33,0.9,3,74.59459459,6594,-10200,1978,-298,98,-5350,-3748.724753,-7540.304348,-208,527.749338,-205.2358491,-1603.596239,62.14898438,68.64,60.92,68.51635465,-0.041015625,0,0,-0.043645352
301,33,0.9,3,75.13513514,6243.47578,-9735.717769,1811.591172,-329.0324675,-698.2561816,-4951.321803,-3568,-7536,-242,605,-214,-1677,62.13,68.64683882,60.91242798,68.46176096,-0.018984375,0.006838816,-0.007572016,-0.054593686
301,33,0.9,3,75.67567568,5632,-9060,1582,-379,-1372,-4599,-3362.117733,-7521.334996,-190.0417957,690.0724897,-243.2328694,-1706.397214,62.13,68.69850376,60.86757202,68.41823904,0,0.05166494,-0.044855967,-0.043521924
301,33,0.9,3,76.21621622,5072,-8506,1484,-415,-1918,-4397,-3242,-7496,-102,764,-277,-1732,62.13,68.75635465,60.86,68.37000237,0,0.057850892,-0.007572016,-0.048236665
301,33,0.9,3,76.75675676,4671.2116,-8222.440817,1507.333333,-509.5630456,-2272.986268,-4135.94886,-3272,-7460,-28,808,-296,-1774,62.13,68.8,60.86,68.32,0,0.043645352,0,-0.050002373
301,33,0.9,3,77.2972973,4324.990025,-8016.970705,1550.666667,-657.2753398,-2550.770912,-3840.581221,-3162,-7532,300.1587984,847.6917808,-284.4090909,-1817.47205,62.16785874,68.8,60.81583147,68.27911629,0.037858742,0,-0.044168532,-0.040883705
301,33,0.9,4,77.83783784,3886,-7740,1574,-809,-2663,-3557,-3052,-7604,714,869,-266,-1862,62.19,68.8,60.79,68.23588097,0.022141258,0,-0.025831468,-0.043235324
301,33,0.9,4,78.37837838,3172,-7222,1488,-951,-2584,-3306,-3063,-7594,1013.37246,843.4897094,-255.2156379,-1904.770307,62.19,68.8,60.79,68.18492199,0,0,0,-0.050958978
301,33,0.9,4,78.91891892,2551.348122,-6674.432416,1026.278432,-1078.013264,-2326.407425,-3020.844867,-3074,-7584,1180,795,-241,-1954,62.19,68.82952168,60.77384287,68.13670982,0,0.029521677,-0.016157134,-0.04821217
301,33,0.9,4,79.45945946,2026,-6364,268,-1146,-1912,-2736,-2958,-7632,1192,738,-199,-2027,62.19,68.88,60.73,68.09,0,0.050478323,-0.043842866,-0.046709824
301,33,0.9,4,80,1638,-6442,-604,-1026,-1348,-2486,-2766,-7636,1278,688,-169,-2070,62.22466553,68.88,60.69496763,68.04329018,0.034665532,0,-0.035032368,-0.046709824
301,33,0.9,4,80.54054054,1466.73728,-6118.553279,-875.300813,-879.5468788,-929.1272977,-2346.611049,-2300,-7672,1310,610,-130,-2085,62.27151414,68.89182995,60.65892142,67.99592107,0.046848605,0.01182995,-0.03604621,-0.047369108
301,33,0.9,4,81.08108108,1394,-5578,-980,-740,-562,-2228,-2024,-7730,1312,548,-86,-2074,62.30848586,69.01251312,60.62107858,67.94777229,0.036971727,0.120683166,-0.037842843,-0.048148773
301,33,0.9,4,81.62162162,1624,-5142,-728,-640,-210,-2088,-1766.47534,-7776.363636,1264.103976,502.1090679,-70.59581134,-2023.16723,62.35533447,69.07311174,60.58503237,67.8696366,0.046848605,0.06059862,-0.03604621,-0.078135695
301,33,0.9,4,82.16216216,1659.915411,-4608.778432,-762.7407407,-565.9463317,149.5843062,-1852.539563,-1530.861492,-7815.515152,1161.541284,463.5386609,-60.57568345,-1929.358102,62.39,69.12,60.55,67.78,0.034665532,0.046888265,-0.035032368,-0.0896366
301,33,0.9,4,82.7027027,1676.221113,-4041.710034,-827.2592593,-501.1729255,485.4375872,-1545.334413,-1386,-7832,1066,433,-57,-1829,62.39,69.26560236,60.51563064,67.73434345,0,0.145602358,-0.034369364,-0.045656552
301,33,0.9,4,83.24324324,1708,-3590,-862,-423,645,-1232,-1334.535586,-7815.925926,1001.087153,405.7619048,-65.03703704,-1730.320761,62.39973896,69.3819377,60.47758157,67.6765788,0.009738963,0.116335337,-0.038049071,-0.057764648
301,33,0.9,4,83.78378378,1938.523213,-3316.600807,-860.2644602,-317.0402009,662.4357176,-948.7468266,-1302.985482,-7786.074074,941.5973445,382.7142857,-79.96296296,-1623.301605,62.4982178,69.43597601,60.43241843,67.5734212,0.098478836,0.054038311,-0.045163131,-0.103157599
301,33,0.9,4,84.32432432,2334.462131,-3100.732138,-854.084476,-187.3688099,673.2734143,-658.9562498,-1246,-7770,876,373,-88,-1517,62.55410863,69.40061272,60.39455259,67.51293466,0.055890831,-0.035363288,-0.037865846,-0.060486543
301,33,0.9,4,84.86486486,2606,-2816,-842,-39,677,-319,-1004.409214,-7813.884892,774.8763408,374.097561,-45.5,-1422.694757,62.58,69.28,60.36,67.47,0.02589137,-0.120612718,-0.034552588,-0.042934657
301,33,0.9,4,85.40540541,2684,-2310,-538,146,596,142,-650,-7892,710,377,-3,-1313,62.58,69.09963474,60.31386917,67.42639789,0,-0.180365257,-0.046130827,-0.043602114
301,33,0.9,4,85.94594595,2625.670103,-1792.262611,-295.8752557,257.1725491,487.2436892,587.1020987,-248.3858521,-7987.115108,788.8456284,396.402439,-15.5308642,-1131.229167,62.58,69.04,60.3,67.38261226,0,-0.059634743,-0.013869173,-0.043785623
301,33,0.9,4,86.48648649,2520,-1502,-156,350,350,1032,-2,-8048,948,414,-38,-925,62.58,69.04,60.3,67.33710714,0,0,0,-0.045505122
301,33,0.9,4,87.02702703,2408.303348,-1512.663265,-135.1736738,444.8007453,147.8993278,1511.569315,-332.3121827,-8008,1159.980459,392.666589,-65.9691358,-730.8808089,62.62797273,69.04,60.28402609,67.26057167,0.047972725,0,-0.015973909,-0.076535475
301,33,0.9,4,87.56756757,2296,-1542,-116,543,-51,1956,-854,-7968,1442,345,-84,-580,62.71,69.04,60.24,67.17,0.082027275,0,-0.044026091,-0.090571666
301,33,0.9,4,88.10810811,2210,-1664,-48,658,-171,2293,-1208,-7986,1806,254,-20,-509,62.71,69.13432026,60.20239451,67.12127987,0,0.094320255,-0.03760549,-0.04872013
301,33,0.9,4,88.64864865,2154,-1800,-58,880,-306,2802,-1173,-7976,1648.121739,176.8968637,12.56024096,-459.3042227,62.71674826,69.22160477,60.16308938,67.06065062,0.006748259,0.087284514,-0.039305132,-0.060629254
301,33,0.9,4,89.18918919,1962.11765,-1630,-184.2782375,1052.73902,-290.1851852,3196.425603,-1138,-7966,1450,117,27,-414,62.76559531,69.26313677,60.12336017,66.96809206,0.048847048,0.041532,-0.039729206,-0.092558553
301,33,0.9,4,89.72972973,1758,-1460,-396,1198,-250,3536,-1180,-7992.893617,1389.021118,80.4344316,18.5,-360.2937314,62.81787086,69.34862334,60.12,66.86839568,0.052275557,0.085486573,-0.003360172,-0.099696382
301,33,0.9,4,90.27027027,1672.251595,-1479.932008,-650.2435979,1318.978163,-106.8053907,3845.429862,-1222,-8030,1346,50,10,-311,62.85,69.4459969,60.11946502,66.78472304,0.032129136,0.097373554,-0.000534979,-0.083672644
301,33,0.9,4,90.81081081,1612,-1534,-820,1429,126,4118,-1220.833333,-8050.106383,1306.51412,14.92317687,20,-275.9098647,62.85,69.49111275,60.08016461,66.74879401,0,0.045115855,-0.039300412,-0.035929024
301,33,0.9,4,91.35135135,1553.080508,-1899.347887,-834.7747748,1556.675359,397.8746763,4352.673699,-1218,-8060,1268,-14,30,-244,62.85553711,69.53671343,60.06,66.69816145,0.005537109,0.045600676,-0.020164609,-0.05063256
301,33,0.9,4,91.89189189,1522,-2416,-840,1646,705,4559,-1207.166667,-8059,1226.196516,-32.06092843,25,-207.6006967,62.90446289,69.59477041,60.06,66.59422586,0.048925781,0.058056979,0,-0.103935597
301,33,0.9,4,92.43243243,1696.607438,-2746.546192,-734.1844584,1675.797297,1027.227575,4760.17729,-1198,-8056,1174,-44,20,-174,62.91,69.6,60.06,66.53080365,0.005537109,0.005229594,0,-0.063422201
301,33,0.9,4,92.97297297,2062,-3056,-614,1688,1321,4906,-1208,-8036,1086,-50,30,-149,62.9113963,69.6,60.05940159,66.48553546,0.001396296,0,-0.000598412,-0.045268192
301,33,0.9,4,93.51351351,2632,-3392,-596,1654,1527,4965,-1124.019623,-8080,1086.44294,-52.30895505,37.92857143,-115.6118928,63.00999186,69.6,60.01714635,66.44460775,0.098595563,0,-0.042255241,-0.040927715
301,33,0.9,4,94.05405405,3254.558343,-3832.639816,-486.3015215,1635.094083,1523.091549,4957.797256,-1014,-8124,1088,-55,42,-75,63.05,69.60767987,60,66.40247623,0.040008142,0.007679871,-0.017146346,-0.042131517
301,33,0.9,4,94.59459459,3892,-4306,-318,1613,1512,4940,-976,-8056,1216,-67,39,-24,63.05,69.66344583,60,66.35666543,0,0.055765961,0,-0.045810799
301,33,0.9,4,95.13513514,4476.538954,-4775.181247,-167.3602106,1548.182297,1398.289717,4887.219086,-1047.353448,-8030.392265,1283.642008,-93.49095708,33.61956522,26.66751701,63.060187,69.71504625,60,66.31017389,0.010187005,0.051600418,0,-0.046491538
301,33,0.9,4,95.67567568,5132,-5178,-8,1452,1172,4801,-1162,-8020,1314,-125,30,61,63.10024292,69.76691433,60,66.26574459,0.040055918,0.051868077,0,-0.044429299
301,33,0.9,4,96.21621622,6078,-5434,164,1340,816,4689,-1264.646552,-8022.285714,1274,-149.5660377,41.15552699,70.24288618,63.151917,69.81920592,60,66.22547041,0.051674075,0.052291591,0,-0.040274181
301,33,0.9,4,96.75675676,6578,-5646,274,1244,514,4637,-1324,-8028,1234,-173,63,78,63.19738898,69.87389824,59.99335311,66.17732877,0.04547198,0.05469232,-0.006646892,-0.048141645
301,33,0.9,4,97.2972973,6570.715204,-5989.586887,318.7000855,1114.025996,56.79536484,4505.73204,-1060,-8044,1298,-197,91,93,63.24191558,69.92767066,59.94814801,66.12244863,0.044526599,0.053772426,-0.045205096,-0.054880137
301,33,0.9,4,97.83783784,6550.54152,-6402.626288,348.9055983,973.5662792,-489.5042784,4297.923944,-781.9895874,-8034,1370.171904,-231.6689428,129.8636364,168.7894954,63.27627759,69.90345626,59.904488,66.12,0.034362016,-0.024214405,-0.04366001,-0.00244863
301,33,0.9,4,98.37837838,6520,-6726,360,882,-968,4069,-514,-8024,1412,-273,154,298,63.31545787,69.84468864,59.88,66.12,0.039180275,-0.058767615,-0.024488002,0
301,33,0.9,4,98.91891892,6438,-6904,224,849,-1310,3818,-225.029,-8115,1358,-318.2205748,124.5,463.1779737,63.4024518,69.77889202,59.88,66.12,0.086993931,-0.065796626,0,0
301,33,0.9,4,99.45945946,6428.030708,-7200.928661,172.0617669,770.010203,-1730.298009,3578.336915,-60,-8206,1304,-367,95,661,63.47082161,69.76,59.870625,66.12,0.068369808,-0.018892015,-0.009375,0
301,33,0.9,4,100,6418,-7522,124,649,-2049,3360,-208,-7704,1544,-418,96,871,63.5122493,69.76,59.82257813,66.12,0.041427698,0,-0.048046875,0
301,33,0.9,1,0,6037.058101,-7742.423933,28.19902694,473.6021648,-2181.126886,3204.854809,-640.5749738,-7922.410042,1608.135593,-501.5769727,110.339942,1003.516049,63.54833041,69.72352534,59.82,66.08808467,0.036081107,-0.036474659,-0.002578125,-0.031915327
301,33,0.9,1,0.529100529,5306,-7994,-102,269,-2238,3011,-1094,-8154,1632,-585,132,1095,63.58398217,69.68,59.81932617,66.05,0.035651755,-0.043525341,-0.000673828,-0.038084673
301,33,0.9,1,1.058201058,4364,-8478,-270,80,-2022,2498,-1309.082447,-8171.726322,1355.611021,-646.7613907,144.8894957,1151.4773,63.62822374,69.68,59.77391602,66.05,0.044241574,0,-0.045410156,0
301,33,0.9,1,1.587301587,4222,-8806,-620,-23,-1822,2056,-1446,-8182,958,-682,162,1195,63.67395434,69.68,59.76,66.05,0.045730603,0,-0.013916016,0
301,33,0.9,1,2.116402116,7279.535253,-20931.43664,-1489.891304,-90.03498411,-1592.666911,1241.185925,-1516,-8192,760,-687,214,1234,63.71653248,69.68,59.76,66.05,0.042578139,0,0,0
301,33,0.9,1,2.645502646,11096,-32768,-2130,-163,-1459,261,-1544.745455,-8182.634573,796,-693.9565217,198.1930502,1291.002896,63.72,69.64746094,59.76,66.05,0.003467518,-0.032539063,0,0
301,33,0.9,1,3.174603175,12449.46475,-16009,-1455,-296.2231735,-1916,-869.870563,-1584,-8152,832,-703,168,1327,63.72078613,69.6,59.76,66.05,0.000786133,-0.047460938,0,0
301,33,0.9,1,3.703703704,13044,750,-780,-479,-2373,-1550,-1954,-7720,818,-716,132,1316,63.77376465,69.6,59.76,66.05,0.052978516,0,0,0
301,33,0.9,1,4.232804233,7507.466708,-1267.367781,-811.9485294,-786.5312125,-1601.5,-1197.5,-2288.419731,-7752.249913,867.2592593,-727.2008699,151.962963,1261.865358,63.79,69.58819459,59.76,66.05,0.016235352,-0.011805414,0,0
301,33,0.9,1,4.761904762,1442,-4758,-890,-996,-830,-845,-2591.397242,-7818.722049,958.7407407,-738.4017398,189.037037,1158.198552,63.79,69.53038876,59.76,66.05,0,-0.057805821,0,0
301,33,0.9,1,5.291005291,725.9960861,-8662.632219,-1198.051471,-762.9,-1051.5,-1101.611532,-2788,-7874,1008,-755,209,1041,63.79,69.47297374,59.76,66.01808467,0,-0.057415021,0,-0.031915327
301,33,0.9,1,5.82010582,278,-11094,-1460,-478,-1273,-1555,-2872,-7902,900,-793,201,908,63.79,69.44,59.76,65.98,0,-0.032973743,0,-0.038084673
301,33,0.9,1,6.349206349,-204,-5264,-176,-408,21,-1986,-2835.89618,-7934.931217,652.7456432,-787.4999576,214.7407407,777.6055439,63.79,69.44,59.76,65.98,0,0,0,0
301,33,0.9,1,6.878306878,410,-5586,1060,-328,22,-2312,-2755.347915,-7967.354497,340.0394883,-773.5554707,240.2592593,651.8114655,63.8009375,69.4275,59.76,65.98,0.0109375,-0.0125,0,0
301,33,0.9,1,7.407407407,825.7927772,-5908.939568,616.1133041,-342,44.9582081,-1977.5,-2672,-7982,186,-755,254,546,63.85699219,69.3634375,59.76,65.98,0.056054688,-0.0640625,0,0
301,33,0.9,1,7.936507937,1300,-6270,42,-356,81,-1643,-2579.283465,-7980,188.2295278,-712.6042144,216.5,473.2427795,63.86,69.36,59.76,65.945,0.003007812,-0.0034375,0,-0.035
301,33,0.9,1,8.465608466,2613.539737,-6801.688644,-198.1133041,-335.4785276,114.4799107,-1760.5,-2522,-7978,196,-680,179,397,63.85732139,69.36306127,59.75770405,65.91,-0.002678608,0.003061266,-0.00229595,-0.035
301,33,0.9,1,8.994708995,3606,-7274,-308,-296,134,-1878,-2880,-8032,608,-681,190,267,63.80460411,69.42330959,59.71251781,65.91,-0.052717281,0.060248321,-0.045186241,0
301,33,0.9,1,9.523809524,3470.54955,-7548.019886,118,-235.0214724,47.21327182,-1769.845012,-2876.871429,-7982,814.7195988,-716.489747,210.5617409,181.7127336,63.79,69.42834416,59.7,65.91,-0.014604112,0.00503457,-0.01251781,0
301,33,0.9,1,10.05291005,3296,-7678,544,-193,-71,-1626,-2868,-7932,906,-788,245,91,63.79,69.37061312,59.7,65.91,0,-0.057731036,0,0
301,33,0.9,1,10.58201058,3240,-7226,-260,-196,-119,-1573,-2796.39928,-8555,429.5378654,-914.8496628,343.9739734,-81.53137025,63.79,69.31030006,59.7,65.87,0,-0.06031306,0,-0.04
301,33,0.9,1,11.11111111,3073.686131,-7505,-658.628252,-104.6437768,-66.59322034,-1541.967915,-2600,-9178,-108,-1026,437,-268,63.79,69.28,59.7,65.83,0,-0.030300061,0,-0.04
301,33,0.9,1,11.64021164,2946,-7784,-834,36,9,-1516,-1518,-8658,-184,-1054,457,-395,63.79,69.28,59.7,65.83,0,0,0,0
301,33,0.9,1,12.16931217,3264,-7460,-774,124,47,-1488,-1941,-10970,205.5647922,-897.5,534.8352601,-398.6838124,63.77376465,69.26144531,59.7,65.84855469,-0.016235352,-0.018554688,0,0.018554688
301,33,0.9,1,12.6984127,3892.64136,-7349.607377,-527.3830812,205.9118877,102.5405837,-1405.033417,-2364,-13282,792,-741,598,-402,63.72078613,69.20089844,59.7,65.90910156,-0.052978516,-0.060546875,0,0.060546875
301,33,0.9,1,13.22751323,4352,-7306,-172,279,141,-1278,-812,-12437,1220.435208,-792,543.5454856,-600.219375,63.755,69.2,59.7,65.87,0.034213867,-0.000898437,0,-0.039101563
301,33,0.9,1,13.75661376,4379.855499,-7533,226.6696141,349.332571,145.3592663,-1121.849267,740,-11592,1452,-843,448,-795,63.78921387,69.2,59.7,65.83089844,0.034213867,0,0,-0.039101562
301,33,0.9,1,14.28571429,4406,-7760,470,392,149,-939,284,-11618,-472,-773,359,-511,63.73623535,69.2,59.7,65.89144531,-0.052978516,0,0,0.060546875
301,33,0.9,1,14.81481481,4635.006148,-7568,378,400.0060484,161.983871,-743.2855664,727.6988417,-12129.23272,-135.5124038,-737.4046095,309.5503731,-379.1599411,63.72,69.2,59.7,65.91,-0.016235352,0,0,0.018554688
301,33,0.9,1,15.34391534,4840,-7376,286,403,172,-541,1358,-12618,464,-709,287,-273,63.72,69.2,59.7,65.91,0,0,0,0
301,33,0.9,1,15.87301587,4825.084866,-7404.321101,512.6332209,398.7386515,170.0491071,-350.0436274,1658,-12216,1048,-678,287,-144,63.72,69.2,59.7,65.91,0,0,0,0
301,33,0.9,1,16.4021164,4780,-7474,938,386,164,-154,1982.199903,-12359.11111,1405.192837,-741.4466835,292.1625553,1.582446501,63.72,69.20306127,59.7,65.91,0,0.003061266,0,0
301,33,0.9,1,16.93121693,4464,-7658,1420,303,113,64,2290.655507,-12624.88889,1678.818641,-884.2267003,306.658444,165.0470088,63.72,69.26330959,59.7,65.91,0,0.060248321,0,0
301,33,0.9,1,17.46031746,4180.381633,-7673.413299,1094.888889,259.6720604,121.2962963,171.5382483,2428,-12768,1788,-1035,329,367,63.72,69.28,59.7,65.91433397,0,0.016690413,0,0.004333973
301,33,0.9,1,17.98941799,3929.857483,-7681.595538,491.1111111,228.1693635,136.7037037,247.7932195,1484.381731,-12428.37037,1682.533809,-1180.108942,455.478658,623.8680162,63.72,69.28,59.7,65.94024042,0,0,0,0.025906447
301,33,0.9,1,18.51851852,3822,-7684,166,216,145,330,-574.7920935,-11797.62963,1435.28984,-1335.002378,672.5560931,958.6920479,63.755,69.24,59.7,65.969653,0.035,-0.04,0,0.029412583
301,33,0.9,1,19.04761905,3834.1875,-7651.5,218.5,222.4594454,135.9375,436.9149365,-2592,-11458,1150,-1472,814,1402,63.79,69.2,59.7,65.98,0.035,-0.04,0,0.010346996
301,33,0.9,1,19.57671958,3861,-7580,334,239.3085211,116,554.09545,-4514.837536,-12275.28657,743.3768264,-1586.34549,845.5188892,2254.842924,63.79,69.2,59.7,65.98,0,0,0,0
301,33,0.9,1,20.10582011,3887.8125,-7508.5,449.5,262.7533362,96.0625,668.9782385,-6398.752101,-13874.35093,270.7995243,-1688.364573,863.7824178,3409.868594,63.77185185,69.2,59.7,65.98,-0.018148148,0,0,0
301,33,0.9,1,20.63492063,3900,-7476,502,289,87,769,-7248,-14976,44,-1773,899,4285,63.72240055,69.2,59.7,65.98,-0.049451303,0,0,0
301,33,0.9,1,21.16402116,3834,-7489,407,336.5957395,121.5,843.8478492,-6857.872107,-15356.63594,1328,-1829.71997,1074.173807,4793.438088,63.72,69.2,59.7,65.98,-0.002400549,0,0,0
301,33,0.9,1,21.69312169,3768,-7502,312,371,156,922,-6270,-15524,2612,-1894,1400,5068,63.72,69.19693873,59.7,65.98,0,-0.003061266,0,0
301,33,0.9,1,22.22222222,3891.925926,-7499.480351,553.5954416,366.1857517,153.6447574,1037.364129,-5945.231431,-14133.80609,2171.725994,-2063.615418,2010.786208,5112.271563,63.72,69.13669041,59.7,65.98,0,-0.060248321,0,0
301,33,0.9,1,22.75132275,4122.074074,-7493.405146,1008.524217,352.927059,146.6228482,1176.942425,-5606,-12220,1274,-2236,2619,5149,63.70376465,69.12,59.7,65.96376465,-0.016235352,-0.016690413,0,-0.016235352
301,33,0.9,1,23.28042328,4246,-7486,1272,333,135,1316,-5060,-11410,-22,-2306,2880,5239,63.65078613,69.12,59.7,65.91078613,-0.052978516,0,0,-0.052978516
301,33,0.9,1,23.80952381,4202,-7476,1292,281,88,1446,-4312.111321,-11049.84975,-324.6681687,-2279.259124,2920.448473,5269.812834,63.65,69.07253906,59.7,65.91,-0.000786133,-0.047460937,0,-0.000786133
301,33,0.9,1,24.33862434,3776,-7560,1170,216,36,1609,-3442,-10756,-434,-2238,2934,5282,63.64481481,69.04,59.7,65.91,-0.005185185,-0.032539063,0,0
301,33,0.9,1,24.86772487,3389.243376,-7681.474255,1017.688696,203.0182577,43.25925926,1671.248443,-2490,-10372,182,-2212,2638,5072,63.59320302,69.04,59.7,65.91,-0.051611797,0,0,0
301,33,0.9,1,25.3968254,3046.066133,-7811.403794,864.0665704,195.4535733,56.74074074,1711.116348,-1849.793159,-9599.262584,-73.22250639,-2187.886117,2177.530831,4844.770406,63.58,69.02144531,59.68608398,65.91,-0.013203018,-0.018554688,-0.013916016,0
301,33,0.9,1,25.92592593,2898,-7872,794,193,64,1753,-1498,-8612,-522,-2155,1637,4602,63.58,68.96089844,59.64067383,65.91,0,-0.060546875,-0.045410156,0
301,33,0.9,1,26.45502646,2972,-7813.315789,855.2870091,193,58.5664557,1804.624865,-1423.824719,-7538.352655,-1048.777494,-2068.613319,1080.706461,4322.028217,63.55309397,68.96,59.64,65.91,-0.026906026,-0.000898437,-0.000673828,0
301,33,0.9,2,26.98412698,3046,-7712,920,193,47,1861,-1388,-6588,-1382,-1950,547,4061,63.50804231,68.95482566,59.64,65.91397517,-0.045051663,-0.005174341,0,0.003975168
301,33,0.9,2,27.51322751,2946,-7622,924,196,28,1928,-1368.42029,-5967.877994,-1315.762009,-1825.358453,80.96353337,3876.90405,63.46661041,68.89882353,59.64,65.96056585,-0.041431906,-0.056002129,0,0.046590678
301,33,0.9,2,28.04232804,2768.789474,-7700,865.1259338,196,16.4335443,1979.936515,-1360,-5530,-1198,-1717,-300,3708,63.42170364,68.86014812,59.64494606,66.00431215,-0.044906762,-0.038675414,0.004946061,0.043746303
301,33,0.9,2,28.57142857,2650,-7778,754,196,11,2023,-1422,-5276,-1084,-1657,-551,3519,63.36770405,68.82891544,59.66735599,66.04408243,-0.053999593,-0.031232679,0.022409933,0.03977028
301,33,0.9,2,29.1005291,2674,-7752,626,232,30,2057,-1645.955453,-5271.016481,-931.5420168,-1555.840267,-890.3593524,3280.331538,63.323678,68.80651333,59.6915978,66.08494641,-0.044026053,-0.022402104,0.024241807,0.040863984
301,33,0.9,2,29.62962963,2289.18552,-7771.765625,541.0604595,257.6779954,10.5,2055.443396,-1846,-5266,-838,-1408,-1255,2990,63.31,68.8,59.7,66.12900744,-0.013677997,-0.006513332,0.008402198,0.04406103
301,33,0.9,2,30.15873016,1762,-7798,500,286,-9,2051,-1872,-4928,-844,-1163,-1583,2606,63.31,68.8,59.7,66.17625298,0,0,0,0.047245537
301,33,0.9,2,30.68783069,1483.81448,-7810.234375,551.9312242,350.4563953,15.01408451,1994.156537,-1867.179487,-4400.648114,-579,-976.8464527,-1646.781925,2170.217417,63.30287076,68.79340525,59.71545699,66.24685689,-0.007129239,-0.006594749,0.015456992,0.070603914
301,33,0.9,2,31.21693122,1348,-7816,672,400,46,1898,-1856,-3694,-314,-815,-1669,1734,63.26712744,68.76352534,59.76,66.35,-0.035743326,-0.02987991,0.044543008,0.103143107
301,33,0.9,2,31.74603175,1470,-7780,928,404,56,1806,-1832.097687,-2606.44663,-389.8654781,-665.0405157,-1663,1349.351211,63.21745053,68.73120293,59.77873551,66.48594832,-0.04967691,-0.03232241,0.018735506,0.135948317
301,33,0.9,2,32.27513228,1464.705882,-7807,1260.193726,378.3238994,34.83578431,1749.591727,-1794,-1562,-566,-523,-1657,973,63.17154832,68.72,59.79170961,66.64913243,-0.045902208,-0.011202931,0.012974101,0.163184113
301,33,0.9,2,32.8042328,1450,-7834,1462,333,1,1699,-1748.263061,-872.1517067,-1053.4742,-384.7545067,-1679,575.1642608,63.12665226,68.72,59.80932452,66.81153431,-0.044896053,0,0.017614908,0.162401881
301,33,0.9,2,33.33333333,1322.910012,-7819,1360,289.1512559,-26.60733604,1639.55455,-1672,-530,-1548,-243,-1701,174,63.08832398,68.70175673,59.86189236,66.9528908,-0.038328289,-0.018243266,0.05256784,0.141356491
301,33,0.9,2,33.86243386,1130,-7804,1258,245,-46,1572,-1450,-792,-1696,-84,-1680,-220,63.05380536,68.6437836,59.93897066,67.07895882,-0.034518619,-0.057973135,0.077078305,0.126068016
301,33,0.9,2,34.39153439,980.5995175,-7834.642857,1268.21028,203.8554735,-53.72844828,1484.917516,-1253.205722,-967.6237991,-1432.806015,138.7561023,-1695,-674.1298979,63.00503759,68.60890391,59.94,67.17625579,-0.048767767,-0.034879688,0.001029339,0.097296976
301,33,0.9,2,34.92063492,846,-7900,1296,172,-57,1393,-1120,-1184,-962,394,-1710,-1158,62.94842423,68.57831252,59.9439222,67.2697692,-0.056613357,-0.030591387,0.003922195,0.093513408
301,33,0.9,2,35.44973545,738,-8008,1406,156,-56,1313,-1076,-1760,-498,657,-1671,-1654,62.91247563,68.56111843,59.98746493,67.37162085,-0.035948607,-0.017194092,0.043542734,0.101851644
301,33,0.9,2,35.97883598,635.5230408,-7979,1233,121.5379939,-54.29220779,1200.603887,-1302,-2004,-184,808,-1752,-1947,62.91,68.56,60.0235236,67.46387274,-0.002475625,-0.001118433,0.036058674,0.092251889
301,33,0.9,2,36.50793651,560,-7950,1060,92,-52,1068,-1321.12631,-2261.839879,-122.097886,988.7688984,-1904.19917,-2284.768199,62.91,68.56,60.05649864,67.54359274,0,0,0.032975033,0.079720009
301,33,0.9,2,37.03703704,528,-8026,1128,85,-49,921,-1338,-2408,-90,1182,-2008,-2637,62.88309397,68.56,60.10168269,67.59816271,-0.026906026,0,0.045184051,0.054569968
301,33,0.9,2,37.56613757,560,-8038.691167,1222.931507,64.81562043,-50.15384615,802.2395574,-1535.559722,-2363.925926,-68.78947491,1375.594917,-2004.44555,-2996.764893,62.83624707,68.56,60.12,67.64299702,-0.0468469,0,0.018317313,0.044834313
301,33,0.9,2,38.0952381,592,-8048,1282,39,-53,692,-1950.23427,-2282.074074,-53.45053145,1571.598904,-1994.224433,-3354.998137,62.78697882,68.56,60.12,67.68287696,-0.049268258,0,0,0.039879938
301,33,0.9,2,38.62433862,463.7985075,-8065.065336,1231,15.82858215,-64.84615385,578.7592758,-2412,-2238,-28,1763,-1978,-3659,62.78,68.56,60.13386917,67.72695648,-0.006978816,0,0.013869173,0.044079515
301,33,0.9,2,39.15343915,264,-8088,1180,-1,-75,467,-2864.177072,-2400.296296,70.16803687,1938.799713,-1889.499504,-3902.217293,62.78,68.56,60.18,67.78,0,0,0.046130827,0.053043521
301,33,0.9,2,39.68253968,134,-8122,1204,-7,-72,358,-3386.596297,-2701.703704,234.2244858,2110.313428,-1686.335657,-4112.110411,62.74503781,68.50952168,60.21547734,67.87057167,-0.034962188,-0.050478323,0.035477343,0.090571666
301,33,0.9,2,40.21164021,274.5185185,-8118.888889,1293.111742,-32.78081899,-67.4005168,229.202021,-4014,-2864,376,2304,-1405,-4287,62.69902584,68.48,60.25054112,67.94628286,-0.046011972,-0.029521677,0.035063778,0.075711193
301,33,0.9,2,40.74074074,535.4814815,-8113.111111,1422.111427,-77.08297593,-62.36692506,94.6885371,-4890,-2802,462,2550,-856,-4420,62.6648153,68.48,60.28562958,67.98818993,-0.034210544,0,0.035088457,0.041907069
301,33,0.9,2,41.26984127,676,-8110,1488,-118,-60,-11,-5441.827045,-3012.430584,358.0925645,2758.205589,-262.6539021,-4571.722615,62.61868468,68.48,60.32750971,68.06630474,-0.046130615,0,0.041880134,0.078114815
301,33,0.9,2,41.7989418,606,-8116,1444.217822,-147.0562054,-83,-74.18379562,-5704,-3346,130,2932,252,-4660,62.58,68.48,60.36,68.17,-0.03868468,0,0.032490288,0.103695255
301,33,0.9,2,42.32804233,536,-8122,1356,-175,-106,-133,-5693.323529,-3556.622918,-308.6591684,3078.700262,655.0613499,-4639.742397,62.58,68.52364535,60.36,68.2340625,0,0.043645352,0,0.0640625
301,33,0.9,2,42.85714286,622.9031607,-8104.780108,1233.893979,-213.4243697,-69.5,-229.1620217,-5662,-3796,-856,3177,863,-4584,62.57242798,68.57823904,60.36494912,68.23990398,-0.007572016,0.054593686,0.004949117,0.005841478
301,33,0.9,2,43.38624339,836,-8060,1084,-237,-33,-303,-5480,-4218,-1302,3213,865,-4352,62.52757202,68.62176096,60.40324784,68.18009602,-0.044855967,0.043521924,0.038298719,-0.059807956
301,33,0.9,2,43.91534392,1392,-7914,932,-221,-66,-320,-5027.094886,-4981.528968,-1836.057325,3195.771309,632.6174168,-3983.505747,62.52,68.67635465,60.44554011,68.1953125,-0.007572016,0.054593686,0.042292276,0.015216478
301,33,0.9,2,44.44444444,1163.127098,-7981.183995,997.8988495,-246.9336735,-102.7734657,-334.0539228,-4598,-5844,-2352,3150,155,-3545,62.52,68.72,60.49,68.25,0,0.043645352,0.044459888,0.0546875
301,33,0.9,2,44.97354497,750,-8088,1122,-289,-124,-357,-4460,-6526,-2744,2987,-551,-3099,62.47583147,68.72,60.5256797,68.25,-0.044168532,0,0.035679696,0
301,33,0.9,2,45.5026455,332,-8162,1264,-320,-108,-489,-4816.082024,-6923.751016,-2747.117871,2754.241314,-1131.080257,-2654.051274,62.45,68.72,60.56107858,68.25,-0.025831468,0,0.035398883,0
301,33,0.9,2,46.03174603,516.3777038,-8107,1305.295411,-347.1241932,-89.11510791,-627.0426973,-5426,-7108,-2748,2483,-1507,-2238,62.45,68.72,60.59892142,68.25,0,0,0.037842843,0
301,33,0.9,2,46.56084656,848,-8052,1340,-377,-78,-708,-5923.302592,-7042.648241,-2358.085865,2201.639117,-1657.047476,-1866.992231,62.47583147,68.69845715,60.63488797,68.27051026,0.025831468,-0.021542846,0.035966549,0.020510259
301,33,0.9,2,47.08994709,1264.622296,-8068,1429.721739,-421.0975,-106.2520833,-711.6957965,-6496,-6928,-1792,1900,-1720,-1554,62.52,68.64,60.67,68.32,0.044168532,-0.058457154,0.035112029,0.049489741
301,33,0.9,2,47.61904762,1534,-8084,1494,-470,-149,-715,-7516.615385,-6794.351759,-1492.205415,1567.705181,-1355.279717,-1319.137977,62.52,68.58154285,60.70554127,68.34583443,0,-0.058457154,0.035541273,0.025834431
301,33,0.9,2,48.14814815,1328.415493,-8065.3,1343.038642,-522.305823,-180.7479167,-730.1014235,-8208,-6710,-1234,1234,-711,-1121,62.51532758,68.56,60.74134049,68.36645726,-0.004672419,-0.021542846,0.035799217,0.020622827
301,33,0.9,2,48.67724868,1090,-8040,1072,-557,-198,-757,-8065.879408,-6947,-906.7087199,923.284886,-50.05015555,-944.0746461,62.46420598,68.56,60.77845262,68.3907006,-0.051121605,0,0.037112133,0.024243339
301,33,0.9,2,49.20634921,1048,-8030,802,-563,-171,-801,-7716,-7184,-714,641,543,-777,62.41838524,68.56,60.82524831,68.42956762,-0.045820737,0,0.046795683,0.038867026
301,33,0.9,2,49.73544974,886,-8004,608,-540,-172,-895,-6790,-6944,-924,409,879,-605,62.39,68.56,60.86,68.48,-0.02838524,0,0.034751694,0.050432377
301,33,0.9,2,50.26455026,1036,-7954,542,-538,-163,-960,-6000,-6752,-1464,86,1167,-345,62.39,68.56,60.86,68.53845715,0,0,0,0.058457154
301,33,0.9,2,50.79365079,1405.740696,-7988.740741,705.8518519,-543.5154576,-170.3499361,-953.5819521,-5536.295695,-7449.407407,-877.037037,137.8518519,879.2222222,308.5362237,62.38354004,68.56,60.86553711,68.56,-0.006459961,0,0.005537109,0.021542846
301,33,0.9,2,51.32275132,1884.537014,-8053.259259,1010.148148,-557.2531374,-185.4776501,-937.1639042,-5172.577871,-8744.592593,213.037037,234.1481481,344.7777778,1159.990334,62.32645996,68.56,60.91446289,68.56,-0.057080078,0,0.048925781,0
301,33,0.9,2,51.85185185,2122,-8088,1174,-575,-198,-915,-4640,-9442,800,286,57,1583,62.32,68.54145644,60.92,68.56,-0.006459961,-0.018543562,0.005537109,0
301,33,0.9,2,52.38095238,2070,-8068.804687,886.5354938,-611.5867769,-205.9396552,-875.74424,-3080.463672,-9412.671446,571.8534067,-83.18518519,146.7037037,1472.555556,62.32,68.47636475,60.92,68.56,0,-0.065091688,0,0
301,33,0.9,2,52.91005291,2018,-8034,576,-639,-210,-820,-924.4540582,-9324.23178,93.48459126,-768.8148148,313.2962963,1267.444444,62.32,68.4139444,60.92,68.56,0,-0.062420347,0,0
301,33,0.9,2,53.43915344,2189.573394,-7989.195312,539.4645062,-620.5,-209.5,-758.3828704,164,-9176,-326,-1138,403,1157,62.32,68.4,60.9284022,68.54879707,0,-0.013944403,0.008402198,-0.011202931
301,33,0.9,2,53.96825397,2470,-7960,526,-602,-209,-680,-1454.74629,-7720.509821,-635.7517493,-982.6742671,237.5,1376.5,62.32,68.4,60.97505394,68.48659475,0,0,0.04665174,-0.06220232
301,33,0.9,2,54.4973545,2734.426606,-7997.662338,626.4101124,-614.7472924,-225.5,-559.199953,-3764,-6072,-802,-808,72,1596,62.29785874,68.37047832,60.98,68.48,-0.022141258,-0.029521677,0.004946061,-0.006594749
301,33,0.9,2,55.02645503,2890,-8076,770,-635,-242,-427,-4880,-5698,112,-784,237,1580,62.26,68.32,60.98,68.48,-0.037858742,-0.050478323,0,0
301,33,0.9,2,55.55555556,2748,-8196,840,-649,-241,-323,-4772.449402,-6519.21334,557.2054795,-836.61521,366.4515441,1441.355093,62.26,68.32,60.98,68.48,0,0,0,0
301,33,0.9,2,56.08465608,2447.379217,-7810,809,-643.6086957,-263.9649123,-284.9957124,-4464,-7536,752,-938,487,1231,62.26,68.32,60.98,68.48,0,0,0,0
301,33,0.9,2,56.61375661,2018,-7424,778,-633,-318,-241,-2886,-7804,-432,-1062,615,1064,62.26,68.32,60.98,68.48,0,0,0,0
301,33,0.9,2,57.14285714,1497.086954,-11258,1406,-615.3913043,-494.5350877,115.1054701,-2702.890632,-7506.560175,-1431.534285,-1031.622106,510.3628186,1068.523136,62.26,68.32,60.98,68.48,0,0,0,0
301,33,0.9,2,57.67195767,828,-15092,2034,-603,-640,495,-2644,-7114,-1956,-960,331,1082,62.26,68.32,60.97946502,68.47953389,0,0,-0.000534979,-0.000466107
301,33,0.9,3,58.2010582,-116,-10492,942,-698,-581,574,-3374,-6974,-1952,-797,175,1168,62.26,68.32,60.94016461,68.43920246,0,0,-0.039300412,-0.040331436
301,33,0.9,3,58.73015873,-4,-11268,-106.7209302,-631.5184684,-597.5,487.7233179,-4346.263158,-7126.798507,-833.2051419,-637.8216818,165.0247525,1090.971061,62.25354004,68.32,60.92,68.38541939,-0.006459961,0,-0.020164609,-0.053783072
301,33,0.9,3,59.25925926,108,-12044,-682,-520,-614,351,-4942,-7338,282,-550,162,942,62.19645996,68.32,60.92,68.33447178,-0.057080078,0,0,-0.050947604
301,33,0.9,3,59.78835979,-396.5185185,-11991.62963,-402,-408.9301303,-608.8751077,263.2803116,-4874.512821,-7435.882048,144.2413163,-556.5,212.5,741.3605972,62.19,68.32,60.92,68.28119238,-0.006459961,0,0,-0.053279398
301,33,0.9,3,60.31746032,-1333.481481,-11894.37037,118,-297.0206207,-596.1946598,182.1561375,-4718,-7510,-174,-563,263,546,62.19,68.32,60.92,68.25,0,0,0,-0.031192383
301,33,0.9,3,60.84656085,-1838,-11842,398,-246,-580,78,-4239.487179,-7585.319444,-1130.241316,-445.9224474,201.522093,420.5929818,62.19,68.32,60.92,68.25,0,0,0,0
301,33,0.9,3,61.37566138,-1650,-12233,372,-274.8986486,-557.5411449,-141.3869863,-3850,-7626,-1906,-222,81,345,62.19,68.32,60.92,68.24675877,0,0,0,-0.003241228
301,33,0.9,3,61.9047619,-1462,-12624,346,-337,-524,-298,-3904,-7528,-1236,46,-74,323,62.19,68.32,60.92,68.21902134,0,0,0,-0.027737429
301,33,0.9,3,62.43386243,-2666,-12542,1000,-442,-468,-295,-4472.51833,-7532,-251.1,141.883297,-90.225,238.3624089,62.19,68.32,60.92,68.18460556,0,0,0,-0.034415783
301,33,0.9,3,62.96296296,-2187.022028,-12183.91333,623.5555556,-569.9646471,-273.8968127,-496.3199818,-4996,-7536,372,194,-96,113,62.19,68.32079788,60.92,68.17,0,0.000797883,0,-0.01460556
301,33,0.9,3,63.49206349,-978.2662784,-11494.62611,-75.55555556,-724.411087,50.65916104,-941.4177415,-4755.491525,-7418,171.1581504,217.7799745,-96.91287879,-29.44120172,62.19,68.3771382,60.92,68.17,0,0.056340322,0,0
301,33,0.9,3,64.02116402,618,-10666,-452,-931,371,-1392,-4336,-7300,-186,242,-98,-143,62.19,68.4,60.92,68.1825,0,0.022861795,0,0.0125
301,33,0.9,3,64.55026455,3318,-9570,26,-1298,640,-1772,-3952,-7544,-532,308,-138,-183,62.19,68.4,60.92,68.2465625,0,0,0,0.0640625
301,33,0.9,3,65.07936508,2544,-11758.37736,397.1002962,-1278.084437,1588.720572,-2827.074376,-4245.604752,-7470,-204.8135593,403.1650038,-184.0912409,-264.3042082,62.19,68.4,60.92,68.25,0,0,0,0.0034375
301,33,0.9,3,65.60846561,1770,-15202,818,-1252,2717,-4023,-4630,-7396,230,463,-211,-383,62.19,68.4,60.92,68.25,0,0,0,0
301,33,0.9,3,66.13756614,3424,-17512,1570,-1243,3343,-4697,-4799.395248,-7401,433.8135593,450,-189.9166667,-553.9334213,62.14898438,68.4,60.92,68.25,-0.041015625,0,0,0
301,33,0.9,3,66.66666667,3695.315392,-15896.50159,2446.388246,-1311.985352,3293.531979,-4957.947708,-4878,-7406,530,437,-167,-749,62.139375,68.4,60.92,68.2609375,-0.009609375,0,0,0.0109375
301,33,0.9,3,67.1957672,3908,-13446,2960,-1410,3166,-5094,-4702.740135,-7402,387.2677419,442.1071429,-164.0833333,-925.0160606,62.18742188,68.4,60.92,68.31699219,0.048046875,0,0,0.056054687
301,33,0.9,3,67.72486772,4492.427298,-11611.49841,1963.502031,-1469.014648,2649.280579,-5145.929707,-4434,-7398,236,450,-163,-1094,62.16264401,68.4,60.89264401,68.32,-0.024777869,0,-0.027355994,0.003007813
301,33,0.9,3,68.25396825,5086,-10612,728,-1499,1842,-5189,-4268,-7490,226,455,-174,-1251,62.13,68.39910156,60.86,68.32,-0.032644006,-0.000898437,-0.032644006,0
301,33,0.9,3,68.78306878,5362,-10748,400,-1365,1031,-5262,-4298,-7458,306,472,-190,-1356,62.13,68.33855469,60.86,68.32,0,-0.060546875,0,0
301,33,0.9,3,69.31216931,5498.179423,-10844.37168,1063,-1302.171485,428.0246508,-5217.042654,-4195.482086,-7459,431.2035928,478.3376145,-177,-1480.322339,62.13,68.32,60.86,68.32,0,-0.018554688,0,0
301,33,0.9,3,69.84126984,5558,-10892,1726,-1275,-93,-5126,-3990,-7460,512,485,-164,-1604,62.13,68.32,60.86,68.32,0,0,0,0
301,33,0.9,3,70.37037037,5328.722453,-10317.74877,1552.395722,-1306.5,-611.2206679,-4995.427831,-3708,-7436,202,506,-165,-1707,62.13,68.32,60.86,68.32,0,0,0,0
301,33,0.9,3,70.8994709,4938,-9516,1214,-1338,-1039,-4840,-3568.600482,-7489,105.3285714,553.9723158,-191.9368132,-1765.297136,62.13,68.31921387,60.85921387,68.31947946,0,-0.000786133,-0.000786133,-0.000520542
301,33,0.9,3,71.42857143,4604,-9158,786,-1278,-1308,-4699,-3494,-7542,68,613,-218,-1818,62.13,68.26623535,60.80623535,68.2769475,0,-0.052978516,-0.052978516,-0.042531956
301,33,0.9,3,71.95767196,4078,-8500,162,-1199,-1670,-4483,-3475.985251,-7485,137.3144654,668.5227885,-210.7608696,-1893.442832,62.13,68.25181486,60.79,68.22690193,0,-0.014420491,-0.016235352,-0.050045567
301,33,0.9,3,72.48677249,3841.405358,-7934.826754,206,-1152.564815,-1893.511341,-4258.354181,-3454,-7428,282,710,-200,-1966,62.13,68.26539955,60.79,68.17944771,0,0.013584686,0,-0.047454224
301,33,0.9,4,73.01587302,3634,-7362,250,-1131,-1999,-4031,-3144,-7546,506,726,-194,-2015,62.13,68.29018152,60.7696784,68.13235294,0,0.024781973,-0.020321596,-0.047094769
301,33,0.9,4,73.54497354,3305.679783,-6597.392472,50.61367837,-1139.5,-1971.312391,-3804.8694,-2816.630272,-7621.771277,590.3479901,745.6140816,-195.5,-2023.213087,62.13059841,68.32428105,60.72647657,68.08538167,0.000598412,0.034099526,-0.043201833,-0.046971267
301,33,0.9,4,74.07407407,2954,-5948,-284,-1148,-1904,-3580,-2558,-7658,642,763,-197,-2026,62.17285365,68.41489359,60.69144794,68.04220819,0.042255241,0.09061254,-0.035028629,-0.043173489
301,33,0.9,4,74.6031746,2581.167192,-5628.6526,-575.2995191,-1107.472071,-1704.094873,-3347.688521,-2436,-7590,678,773,-189,-2007,62.19,68.51557486,60.65525318,67.9773072,0.017146346,0.100681276,-0.036194766,-0.064900981
301,33,0.9,4,75.13227513,2366,-5390,-832,-1031,-1426,-3138,-2346,-7638,852,773,-189,-1993,62.19,68.61227811,60.61752461,67.87505636,0,0.096703249,-0.037728562,-0.102250843
301,33,0.9,4,75.66137566,2398,-5176,-998,-943,-1193,-2984,-2193.898614,-7678.882558,1027.892545,748.9988257,-176.4470418,-1956.678397,62.21741233,68.91,60.57956697,67.81637915,0.027412327,0.297721888,-0.03795764,-0.058677207
301,33,0.9,4,76.19047619,2278.409567,-4815.07998,-948.0182118,-786.6321351,-765.9083916,-2826.221953,-1987.825941,-7719.712878,1216.259113,687.8764771,-145.6611253,-1895.056552,62.26730341,69.11176955,60.543108,67.77101101,0.049891084,0.201769547,-0.03645897,-0.045368149
301,33,0.9,4,76.71957672,2013.4858,-4353.84009,-826.4808681,-588.3306639,-223.062678,-2662.247141,-1778.20396,-7755.301919,1387.479409,605.9547156,-106.951688,-1818.595507,62.299386,68.94222222,60.51096114,67.73065267,0.032082584,-0.169547325,-0.032146868,-0.04035833
301,33,0.9,4,77.24867725,1744,-3918,-676,-422,212,-2476,-1615.454653,-7780.46064,1511.933136,519.5553028,-70.62816713,-1737.756308,62.33644479,68.895,60.47355521,67.66289907,0.03705879,-0.047222222,-0.037405922,-0.0677536
301,33,0.9,4,77.77777778,1514,-3560,-464,-317,458,-2240,-1550,-7790,1560,445,-47,-1663,62.38163819,69.01270833,60.42836181,67.55511692,0.045193409,0.117708333,-0.045193409,-0.107782151
301,33,0.9,4,78.30687831,1326.917178,-3259.935107,-285.5445026,-220.4595597,569.6599703,-1873.698591,-1568,-7774,1511.881356,377.4123612,-36.69689195,-1592.576701,62.42023016,69.20097324,60.38919803,67.55,0.038591965,0.188264903,-0.039163774,-0.005116924
301,33,0.9,4,78.83597884,1230,-2958,-192,-112,673,-1425,-1586,-7758,1424,322,-27,-1523,62.45799856,69.38612607,60.35277291,67.54553447,0.037768405,0.185152832,-0.036425122,-0.004465526
301,33,0.9,4,79.36507937,1640,-2592,-270,47,857,-923,-1446,-7790,1332,292,-11,-1459,62.49999922,69.49995486,60.31753488,67.4465867,0.042000656,0.113828796,-0.035238028,-0.098947778
301,33,0.9,4,79.89417989,2086.374816,-2152.253042,-238.1660377,242.2301003,1073.096263,-543.2252412,-1140.654039,-7857.990431,1336,259.7046279,-12.63461538,-1363.613283,62.54198719,69.45825904,60.27868919,67.37290242,0.041987972,-0.041695824,-0.038845688,-0.07368428
301,33,0.9,4,80.42328042,2342,-1728,-156,413,1244,-203,-882,-7906,1340,224,-16,-1241,62.57849317,69.16787299,60.2415632,67.32911442,0.036505973,-0.290386051,-0.037125992,-0.043787998
301,33,0.9,4,80.95238095,2298,-1408,104,507,1314,136,-826,-7898,1254,181,-21,-1080,62.58,68.92720537,60.24,67.28550499,0.001506834,-0.240667617,-0.0015632,-0.04360943
301,33,0.9,4,81.48148148,2202.045894,-1412.623476,337.1395756,578.8615355,1224.06203,633.8070513,-847.3597561,-7911.797619,1324.888889,139.3964638,-13.86,-953.6837211,62.5805495,68.80179688,60.2395459,67.23313898,0.000549504,-0.125408498,-0.000454102,-0.052366008
301,33,0.9,4,82.01058201,2074,-1426,510,652,1068,1211,-888,-7936,1430,97,-4,-840,62.62422063,68.92289063,60.20277832,67.13213514,0.043671124,0.12109375,-0.036767578,-0.101003838
301,33,0.9,4,82.53968254,1905.765601,-1749.376524,612.2057075,750.6409666,911.404891,1815.831535,-926.8345054,-7964.202381,1503.111111,45.90978079,-0.086428571,-719.9813498,62.66924547,68.90433594,60.15722168,67.06592794,0.045024838,-0.018554687,-0.045556641,-0.066207204
301,33,0.9,4,83.06878307,1794,-2064,662,861,782,2399,-990,-7982,1542,4,4,-621,62.70611452,68.72269531,60.1204541,67.02556036,0.03686905,-0.181640625,-0.036767578,-0.04036758
301,33,0.9,4,83.5978836,1787.832965,-1835.523179,666.443038,973.8864202,727.3893839,2877.755473,-1192,-7982,1384,-15,13,-564,62.74667164,68.78594749,60.12,66.94053381,0.040557122,0.063252174,-0.000454102,-0.085026544
301,33,0.9,4,84.12698413,1782,-1564,668,1089,675,3327,-1060,-7986.500923,1124.224077,-39.41828677,37.01595745,-508.6446553,62.78830105,68.89882353,60.11770405,66.85829299,0.041629416,0.112876043,-0.00229595,-0.08224082
301,33,0.9,4,84.65608466,1723.290323,-1490.476821,519.8253874,1203.34844,539.643695,3810.691798,-928,-7996,954,-62,55,-448,62.83020088,68.99294118,60.07251781,66.81126107,0.041899826,0.094117647,-0.045186241,-0.047031921
301,33,0.9,4,85.18518519,1670,-1460,266,1315,441,4247,-929.3573417,-8015.060424,1007.4375,-76.0332298,54.81104651,-370.0058463,62.87198719,69.09007054,60.06,66.76897464,0.041786313,0.09712936,-0.01251781,-0.042286436
301,33,0.9,4,85.71428571,1706.435955,-1588.773507,12.83100834,1437.330585,482.3256794,4618.925545,-934.119578,-8043.998155,1125,-86.57765136,54.1627907,-279.1176993,62.90849317,69.18569404,60.06,66.72854846,0.036505973,0.095623504,0,-0.040426176
301,33,0.9,4,86.24338624,1801.307865,-1920.640521,-285.3051156,1572.706908,593.3370381,4979.987656,-943.3220252,-8070.436808,1242.5625,-97.58324725,52.93313953,-185.9207026,62.91,69.25302096,60.050625,66.68379048,0.001506834,0.067326921,-0.009375,-0.044757985
301,33,0.9,4,86.77248677,1932.961798,-2373.920781,-570.2567437,1698.017938,754.5855571,5299.786994,-958,-8082,1296,-113,51,-101,62.91,69.28,60.0244043,66.63616655,0,0.026979038,-0.026220703,-0.047623931
301,33,0.9,4,87.3015873,2079.74382,-2866.934028,-783.8722479,1790.152646,946.6227174,5547.924222,-1160,-8048,1096,-141,31,-29,62.91,69.28,60.00257813,66.5884786,0,0,-0.021826172,-0.04768795
301,33,0.9,4,87.83068783,2220,-3318,-868,1826,1150,5694,-1442.292627,-8005.5,1108,-153.9199709,32.40625,-13.64807114,62.92265161,69.25925926,60,66.54300047,0.012651612,-0.020740741,-0.002578125,-0.045478129
301,33,0.9,4,88.35978836,2344.107333,-3708.798188,-830.0291829,1780.615948,1434.079514,5770.727985,-1618,-7980,1120,-163,36,-4,62.97108504,69.20274348,60,66.49881138,0.048433426,-0.056515775,0,-0.044189089
301,33,0.9,4,88.88888889,2520,-4178,-752,1690,1747,5805,-1479.647191,-7997.828571,1072,-170.3190154,52.09375,5.335306351,63.0154224,69.32,59.97,66.45784193,0.044337359,0.117256516,-0.03,-0.040969445
301,33,0.9,4,89.41798942,2936.577454,-5090.965703,-605.9481193,1553.719209,2021.636996,5726.615008,-1232,-8032,1024,-178,71,18,63.05757404,69.44,59.94,66.40518268,0.042151646,0.12,-0.03,-0.052659249
301,33,0.9,4,89.94708995,3623.813164,-6200.149518,-418.6407263,1380.858723,2274.109694,5528.674461,-945.4372777,-8084.171429,1134.797663,-188.7405015,77.85046729,61.17899518,63.09179809,69.44,59.94,66.2952429,0.034224045,0,0,-0.109939788
301,33,0.9,4,90.47619048,4438,-6740,-326,1254,2428,5267,-728,-8120,1322,-205,85,129,63.13547862,69.42144531,59.92999143,66.27,0.043680536,-0.018554688,-0.01000857,-0.025242897
301,33,0.9,4,91.00529101,5492,-6672,-404,1197,2482,4823,-676,-8118,1478,-241,103,211,63.17944304,69.36089844,59.88387083,66.27,0.043964415,-0.060546875,-0.046120601,0
301,33,0.9,4,91.53439153,7214.637443,-6609.65625,-203.350365,1038.79017,2237.241379,4538.080456,-699.476012,-8082.139344,1394,-290.7983377,98,299.9652667,63.18,69.36,59.84010621,66.23191533,0.000556961,-0.000898437,-0.043764616,-0.038084673
301,33,0.9,4,92.06349206,8440,-6576,58,845,1810,4277,-754,-8048,1310,-342,93,395,63.18154014,69.35693873,59.82,66.2,0.001540145,-0.003061266,-0.020106213,-0.031915327
301,33,0.9,4,92.59259259,8566,-6714,146,707,1418,3952,-872,-8072,1406,-382,109,499,63.22173433,69.29669041,59.82,66.2,0.040194189,-0.060248321,0,0
301,33,0.9,4,93.12169312,9006.172449,-7454.09297,80,504.0438881,885.0109239,3491.617837,-844.6222222,-8010,1304,-426.2336696,132.8467492,599.2745919,63.28700103,69.29855469,59.82,66.18144531,0.065266694,0.001864274,0,-0.018554688
301,33,0.9,4,93.65079365,9356,-8248,14,301,371,2956,-808,-7948,1202,-471,148,704,63.37386256,69.35910156,59.82,66.12089844,0.086861536,0.060546875,0,-0.060546875
301,33,0.9,4,94.17989418,8538.050081,-8535.193217,73,167.8871569,-3.301003081,2407.681687,-790.3777778,-7948.896552,1229.094901,-513.218693,148,830.4349462,63.42192674,69.36,59.82,66.12,0.04806418,0.000898437,0,-0.000898437
301,33,0.9,4,94.70899471,7302,-8660,132,34,-285,1801,-782,-7952,1276,-554,148,952,63.4626688,69.36,59.81505394,66.12,0.040742059,0,-0.004946061,0
301,33,0.9,4,95.23809524,6574,-7976,-224,-163,-457,1075,-854,-8080,1318,-593,150,1042,63.50393855,69.36,59.7684022,66.12,0.041269749,0,-0.04665174,0
301,33,0.9,4,95.76719577,6086.562834,-8031,-656.7564306,-278.8856123,-438.488255,552.6718444,-1220,-7986,1236,-640,157,1142,63.54407137,69.36,59.76,66.11422959,0.04013282,0,-0.008402198,-0.005770405
301,33,0.9,4,96.2962963,5562,-8086,-914,-358,-389,143,-1475.387503,-7963.135874,1097.917982,-665.2387808,178.4567901,1175.171627,63.58411253,69.36,59.76,66.08808467,0.040041156,0,0,-0.026144922
301,33,0.9,4,96.82539683,4612,-7684,-874,-406,-208,-157,-1683.43799,-7950.524273,926.14985,-683.7278402,208.0617284,1196.474702,63.62225345,69.36,59.76,66.05980256,0.03814092,0,0,-0.028282109
301,33,0.9,4,97.35449735,3878.891054,-7262.245265,-794.9666072,-419.7839248,37.73562389,-484.0640841,-1832,-7936,780,-696,223,1204,63.6566716,69.36,59.76,66.05,0.034418153,0,0,-0.009802565
301,33,0.9,4,97.88359788,3364,-6844,-654,-425,309,-750,-1911.783354,-7908.116082,658.6068559,-704.8353293,216.2927136,1198.882124,63.69294966,69.36,59.76,66.05,0.036278062,0,0,0
301,33,0.9,4,98.41269841,3120,-6454,-290,-408,570,-883,-1998,-7890,594,-709,204,1186,63.72998439,69.36,59.76,66.05,0.037034729,0,0,0
301,33,0.9,4,98.94179894,3012.572039,-6198.901408,-19.67132623,-386.9751589,593.6162506,-826.4690238,-2222,-7984,760,-708,191,1149,63.7621711,69.36,59.76,66.05,0.032186709,0,0,0
301,33,0.9,4,99.47089947,2940,-5942,214,-367,601,-725,-2452.69707,-7926.365591,821.2713311,-723.3225806,212,1095.478629,63.7839051,69.36,59.72502058,66.05,0.021734,0,-0.034979424,0
301,33,0.9,4,100,2882,-5542,430,-353,470,-624,-2682,-7850,846,-746,233,1026,63.79,69.3565625,59.7,66.05,0.0060949,-0.0034375,-0.025020576,0
301,33,0.9,1,0,4506,-10159,209,-350.7559055,285.1796793,-502.2044432,-2955.959821,-7826.438563,639,-761.6774194,226,933.429224,63.79,69.2925,59.7,66.05,0,-0.0640625,0,0
301,33,0.9,1,0.632911392,6130,-14776,-12,-350,44,-430,-3118,-7798,432,-770,219,821,63.79,69.3028618,59.7,66.05,0,0.010361795,0,0
301,33,0.9,1,1.265822785,4442,-7036,245,-518,-395.1899059,-1309,-3096,-7662,452,-749,231,690,63.79,69.35920212,59.7,66.05,0,0.056340322,0,0
301,33,0.9,1,1.898734177,2754,704,502,-686,-699,-2188,-3120,-7684.190065,572.4130204,-760.3674497,228.5,536.4777782,63.79,69.36,59.7,66.00847168,0,0.000797883,0,-0.04152832
301,33,0.9,1,2.53164557,2794.3125,-392.8506299,112.9375,-624.3095565,-608.526699,-2042.6875,-3144,-7750,702,-774,226,376,63.79577041,69.36,59.7,65.98,0.005770405,0,0,-0.02847168
301,33,0.9,1,3.164556962,2883,-2867.60168,-743,-471.4088173,-401.7378641,-1723,-2998,-8158,736,-777,287,222,63.85019744,69.36,59.7,65.98,0.05442703,0,0,0
301,33,0.9,1,3.797468354,2971.6875,-5496.55189,-1598.9375,-275.5536695,-175.5800971,-1403.3125,-2834,-8088,510,-811,297,160,63.86,69.36,59.7,65.95999593,0.009802565,0,0,-0.020004071
301,33,0.9,1,4.430379747,3012,-7056,-1988,-85,-27,-1258,-2957.407407,-8575.824689,631.3333333,-809.7037037,428.4779818,41.40219531,63.86,69.36,59.7,65.91069815,0,0,0,-0.049297781
301,33,0.9,1,5.063291139,1484,-7480,616,105,30,-1460,-3186.592593,-9588.093823,856.6666667,-807.2962963,655.4612131,-121.7124461,63.86,69.32328099,59.7,65.91,0,-0.036719013,0,-0.000698148
301,33,0.9,1,5.696202532,1942,-7358,2058,-6,106,-1616,-3310,-10448,978,-806,776,-286,63.86,69.26353749,59.7,65.91,0,-0.059743493,0,0
301,33,0.9,1,6.329113924,3791.198593,-7488.428571,1419.824193,-118.861991,31.5,-1490.32114,-1706,-11032.53056,928.265871,-847,715.4811734,-475.6065089,63.86,69.2077123,59.7,65.91,0,-0.055825198,0,0
301,33,0.9,1,6.962025316,5302,-7666,622,-182,-43,-1269,-102,-11338,782,-888,626,-590,63.86,69.2,59.68101563,65.8846875,0,-0.007712296,-0.018984375,-0.0253125
301,33,0.9,1,7.594936709,4823.925926,-7758.719577,328.1643975,-150.8888889,-42.83235867,-1023.610487,-246,-11028,-80,-887,577,-530,63.86,69.2,59.64,65.83,0,0,-0.041015625,-0.0546875
301,33,0.9,1,8.227848101,3936.074074,-7832.137566,116.9710877,-82.44444444,-42.2202729,-761.2995687,125.4771623,-11713,61.89776358,-802.2686601,636,-474.2757704,63.86,69.2,59.67785874,65.83,0,0,0.037858742,0
301,33,0.9,1,8.860759494,3458,-7862,36,-14,-41,-619,754,-12398,344,-716,695,-403,63.85422959,69.19340525,59.7,65.83,-0.005770405,-0.006594749,0.022141258,0
301,33,0.9,1,9.493670886,3458,-7614,100,42,29,-596,1411.522838,-12142,828.1022364,-712.2855114,679.6749659,-266.0770601,63.79980256,69.13120293,59.7,65.83,-0.05442703,-0.06220232,0,0
301,33,0.9,1,10.12658228,4079,-7477.850034,269.0398048,86.87309645,38.0483871,-493.5470444,1812,-11886,1172,-711,646,-61,63.79,69.12,59.68101563,65.83,-0.009802565,-0.011202931,-0.018984375,0
301,33,0.9,1,10.75949367,4700,-7416,470,110,41,-333,1740,-12624,778,-838,585,253,63.79,69.12,59.64,65.83,0,0,-0.041015625,0
301,33,0.9,1,11.39240506,4629.223827,-7439,640.5173502,105.5,28.5,-148.1097711,2392,-13312,734,-956,605,356,63.74214844,69.0653125,59.68101563,65.83,-0.047851563,-0.0546875,0.041015625,0
301,33,0.9,1,12.02531646,4460,-7462,734,98,16,30,1731.895813,-12851.03704,704.690362,-1083.362484,666.3067082,567.6208653,63.72,69.04,59.7,65.84009602,-0.022148437,-0.0253125,0.018984375,0.010096022
301,33,0.9,1,12.65822785,4056,-7416,514,92,50,147,213.5694043,-11994.96296,678.0132027,-1220.174211,755.2970323,890.1648075,63.72,69.04,59.7,65.89990398,0,0,0,0.059807956
301,33,0.9,1,13.29113924,3769.577811,-7554,516.6041667,109.5,72.88461538,215.2176603,-1470,-11534,624,-1378,815,1283,63.69785156,69.04,59.68101563,65.91,-0.022148438,0,-0.018984375,0.010096022
301,33,0.9,1,13.92405063,3628,-7692,524,137,84,281,-3250,-12614,238,-1583,833,1831,63.65,69.04,59.64,65.91,-0.047851563,0,-0.041015625,0
301,33,0.9,1,14.55696203,3899,-7601,610.9266521,160,82.26548673,385.7162145,-4538,-16256,214,-1593,-48,2858,63.65,69.04,59.64,65.91,0,0,0,0
301,33,0.9,1,15.18987342,4170,-7510,754,173,77,499,-5004.632789,-16043.30034,576.1875,-1669.93757,5.608236351,3654.787785,63.64354004,69.04,59.64,65.91,-0.006459961,0,0,0
301,33,0.9,1,15.82278481,4076,-7616,882,173,39,593,-5321.373965,-15490.96757,1373,-1827.038674,155.2886303,4393.922475,63.58645996,69.04,59.64,65.91,-0.057080078,0,0,0
301,33,0.9,1,16.4556962,3944.158617,-7619.099078,788.4152542,172,40.02702703,692.0587708,-5551.428158,-14727.65102,2169.8125,-2001.370441,384.3247091,4938.095928,63.58,69.06952168,59.64,65.91,-0.006459961,0.029521677,0,0
301,33,0.9,1,17.08860759,3862,-7620,666,171,43,803,-5758,-13882,2532,-2130,676,5150,63.58,69.12,59.64,65.91,0,0.050478323,0,0
301,33,0.9,1,17.72151899,4004,-7586,624,174,59,944,-5986.974719,-12460.95302,1846.349968,-2216.700208,1410.798875,5101,63.56681025,69.10241367,59.64,65.85952168,-0.013189749,-0.017586332,0,-0.050478323
301,33,0.9,1,18.35443038,4092,-7564,706,181,67,1042,-6108,-11334,844,-2261,2275,5052,63.54059771,69.06746362,59.64,65.83,-0.026212539,-0.034950051,0,-0.029521677
301,33,0.9,1,18.98734177,4164,-7538,924,164,60,1218,-5054,-11178,316,-2218,2746,5059,63.52139745,69.04186326,59.64,65.83,-0.019200267,-0.025600356,0,0
301,33,0.9,1,19.62025316,4084.665893,-7533.52521,899.8709677,136.192623,39.76107817,1393.90563,-4122,-10746,-78,-2070,3219,5045,63.52,69.04,59.64,65.85207477,-0.001397446,-0.001863261,0,0.022074768
301,33,0.9,1,20.25316456,3916,-7532,836,118,13,1542,-3692,-10446,-56,-1965,3348,4937,63.52,69.04,59.64,65.91,0,0,0,0.057925232
301,33,0.9,1,20.88607595,3640,-7580,612,124,-10,1634,-3019.390049,-10105.84478,-123.5,-1879.863233,3235.89092,4762.130384,63.47583147,69.04,59.64,65.96161544,-0.044168532,0,0,0.051615442
301,33,0.9,1,21.51898734,3499.494154,-7601.877886,630.8251239,152.2373643,0.296,1700.111375,-2328,-9684,-266,-1790,2987,4544,63.45,69.03483378,59.64,65.98,-0.025831468,-0.005166225,0,0.018384558
301,33,0.9,1,22.15189873,3390.819813,-7618.315601,681.7553718,206.5270348,24.848,1753.570915,-1808.541314,-9064.187491,-561.3333333,-1666.864866,2492.27748,4297.854892,63.45,68.97698803,59.64,65.98,0,-0.05784575,0,0
301,33,0.9,1,22.78481013,3304.398394,-7631.014372,756.4730577,268.2980232,54.152,1803.374767,-1354.894689,-8273.719522,-952.6666667,-1521.42851,1735.930746,4026.521006,63.42416853,68.91873099,59.64,65.98,-0.025831468,-0.058257033,0,0
301,33,0.9,1,23.41772152,3230.651316,-7641.675429,846.6604957,318.9793411,78.704,1858.51908,-968,-7432,-1148,-1372,989,3766,63.38,68.88,59.64,65.98,-0.044168532,-0.038730992,0,0
301,33,0.9,1,24.05063291,3160,-7652,944,340,89,1928,-583.698643,-6467.2803,-1136,-1222.167942,322.1064329,3539.65876,63.38,68.88,59.64,66.01790534,0,0,0,0.037905336
301,33,0.9,1,24.6835443,3105.968884,-7663.680851,1121.535744,308.5182256,72.32733813,2035.440569,-376,-5614,-1124,-1070,-291,3305,63.37019744,68.88,59.64,66.06568783,-0.009802565,0,0,0.047782496
301,33,0.9,1,25.3164557,3038,-7670,1250,257,44,2145,-593.6482606,-5100.356331,-1191,-920.3312378,-816.0828279,3013.105465,63.31577041,68.88,59.64,66.10465556,-0.05442703,0,0,0.038967731
301,33,0.9,2,25.94936709,2832,-7664,1250,218,20,2216,-1012,-4708,-1258,-772,-1238,2710,63.31,68.88,59.64,66.17353505,-0.005770405,0,0,0.068879491
301,33,0.9,2,26.58227848,2466.241254,-7699.005415,1189.162791,177.9857287,-0.31302521,2254.549528,-1520,-4396,-1090,-626,-1513,2439,63.31,68.88,59.64,66.27,0,0,0,0.096464946
301,33,0.9,2,27.21518987,2030,-7746,1058,152,-13,2272,-2201.461731,-3711.280474,-833.4054939,-439.2695833,-1633.779412,2077.244681,63.2781798,68.83667962,59.64,66.36401373,-0.031820199,-0.043320384,0,0.094013726
301,33,0.9,2,27.84810127,1624,-7764,834,147,-16,2246,-2620,-3132,-594,-250,-1685,1664,63.23407456,68.7774525,59.6484022,66.45452302,-0.044105243,-0.059227112,0.008402198,0.090509299
301,33,0.9,2,28.48101266,1416.141016,-7804.389332,562.9068826,165.2411924,-23.48595506,2195.75719,-2603.104809,-2971.069799,-447.2088344,-101.0103487,-1580.252218,1232.224103,63.19269415,68.72448023,59.69505394,66.53968094,-0.041380405,-0.052972275,0.04665174,0.085157912
301,33,0.9,2,29.11392405,1272,-7834,402,200,-29,2127,-2558,-2906,-354,51,-1390,767,63.14866461,68.72,59.7,66.66005475,-0.044029541,-0.004480229,0.004946061,0.120373812
301,33,0.9,2,29.74683544,1155.953192,-7835.139912,422.2222222,243.5995506,-15.25925926,2043.768868,-2394,-3084,-316,248,-1194,253,63.10608101,68.71953389,59.70020113,66.80368354,-0.0425836,-0.000466107,0.000201127,0.143628789
301,33,0.9,2,30.37974684,1059.94732,-7835.792178,477.1111111,295.8422809,10.25925926,1945.897438,-2242.554307,-2924.508304,-331.0618067,442.5330975,-1099.463807,-165.4216704,63.06385326,68.67920246,59.72076797,66.95230281,-0.042227754,-0.040331436,0.020566841,0.148619271
301,33,0.9,2,31.01265823,974,-7836,558,338,24,1846,-2120,-2654,-370,629,-1038,-535,63.05,68.62328657,59.76268588,67.10030475,-0.013853258,-0.055915884,0.041917912,0.148001941
301,33,0.9,2,31.64556962,898,-7836,754,363,4,1747,-2046,-2426,-494,798,-998,-864,63.05,68.56522959,59.80826011,67.21619993,0,-0.058056979,0.045574233,0.115895183
301,33,0.9,2,32.27848101,752,-7916,904,367,13,1667,-2123,-2055.129857,-530.1384745,967.8284314,-968.0688073,-1245.339196,63.03108991,68.59253906,59.84622155,67.27943331,-0.018910094,0.027309469,0.037961433,0.063233378
301,33,0.9,2,32.91139241,637.3560208,-7945.714632,1034.57175,357.8461538,9.04,1561.20287,-2200,-1774,-554,1136,-953,-1622,62.97409404,68.63920212,59.88361915,67.32474596,-0.05699587,0.046663054,0.037397609,0.04531265
301,33,0.9,2,33.5443038,554,-7966,1142,339,2,1446,-2056,-1705.080214,-585.8181818,1301.072764,-1007.31057,-1934.403241,62.89348835,68.5828618,59.91870013,67.36798925,-0.08060569,-0.056340322,0.035080979,0.043243289
301,33,0.9,2,34.17721519,510.4270408,-7989.102273,1234.037037,310.0656109,-4.729655172,1337.105568,-1912,-1678,-604,1461,-1102,-2239,62.8265739,68.56,59.95483122,67.43286857,-0.066914449,-0.022861795,0.036131082,0.064879318
301,33,0.9,2,34.81012658,472,-8004,1282,276,-12,1227,-1914.215692,-1840.296296,-451.037037,1620.519108,-1179.086744,-2599.971139,62.78179364,68.56,59.99264769,67.5353025,-0.044780255,0,0.037816471,0.102433938
301,33,0.9,2,35.44303797,413.8387684,-8006.710434,1236.415584,245.5294118,-18.65024631,1112.749651,-1920.431385,-2141.703704,-166.962963,1775.10807,-1261.890564,-2974.594071,62.78,68.56,60.0284776,67.59181839,-0.001793643,0,0.035829913,0.056515886
301,33,0.9,2,36.07594937,358,-8010,1152,220,-27,996,-1930,-2304,-14,1905,-1370,-3274,62.78,68.56,60.06352343,67.63433851,0,0,0.035045829,0.042520115
301,33,0.9,2,36.70886076,322,-8068,1060,204,-43,877,-1987.873812,-2285.875,-157.4933269,2018.092411,-1557.929047,-3488.841912,62.78,68.56,60.09855206,67.67465813,0,0,0.035028629,0.040319625
301,33,0.9,2,37.34177215,242.6198347,-8069.300633,1137.247059,189.7775897,-33,755.5865118,-2120.467448,-2246,-474.4822052,2124.62531,-1823.519035,-3671.653937,62.7690625,68.5475,60.13483122,67.71789734,-0.0109375,-0.0125,0.036279158,0.043239206
301,33,0.9,2,37.97468354,186,-8070,1256,173,-23,643,-2299.32736,-2206.125,-794.7299808,2208.345554,-2101.349505,-3826.388994,62.71300781,68.4834375,60.17264769,67.76780466,-0.056054687,-0.0640625,0.037816471,0.049907328
301,33,0.9,2,38.60759494,349,-8070.71,1348.752941,144.0492176,-28.78172589,546.9770906,-2496,-2188,-948,2253,-2326,-3957,62.71,68.48,60.215512,67.85042838,-0.003007812,-0.0034375,0.042864312,0.082623717
301,33,0.9,2,39.24050633,512,-8072,1400,109,-40,467,-2760,-2408,-956,2266,-2476,-4057,62.70940159,68.48,60.24,67.93596659,-0.000598412,0,0.024488002,0.085538207
301,33,0.9,2,39.87341772,400,-8102,1372,75,-54,409,-2843.989865,-2897.717163,-894.1467066,2281.693231,-2718.78593,-4087.992801,62.66714635,68.48,60.24,67.98336524,-0.042255241,0,0,0.04739865
301,33,0.9,2,40.50632911,70.46505518,-8100,1314.352941,43.08793868,-65.80693069,308.648598,-2952,-3364,-810,2291,-2976,-4112,62.65,68.48886252,60.24664689,68.02977495,-0.017146346,0.008862523,0.006646892,0.046409716
301,33,0.9,2,41.13924051,-182,-8098,1274,11,-72,181,-4164,-3538,-776,2282,-3164,-4149,62.65,68.54913598,60.29185199,68.08019692,0,0.060273461,0.045205096,0.050421961
301,33,0.9,2,41.7721519,-146.0101351,-8126,1400,-22.81275441,-65.5,33.15894117,-4981.562079,-3727.005841,-610.0382518,2213.99365,-3108.95273,-4124.698902,62.65,68.59768296,60.32826222,68.13734933,0,0.048546972,0.036410229,0.057152416
301,33,0.9,2,42.40506329,-76,-8154,1526,-59,-59,-115,-5700,-3996,-376,2109,-2986,-4064,62.64921387,68.64516111,60.36364719,68.17,-0.000786133,0.04747815,0.035384971,0.032650669
301,33,0.9,2,43.03797468,22.54556821,-8102,1454.815335,-101.2593274,-62,-230.0982601,-6543.158787,-4788.397393,-173.0939346,2015.319424,-2733.484732,-3852.422761,62.59623535,68.70665524,60.40097121,68.17,-0.052978516,0.061494135,0.037324021,0
301,33,0.9,2,43.67088608,114,-8050,1294,-143,-65,-345,-7228,-5570,-14,1926,-2413,-3557,62.58,68.72,60.43932878,68.19829218,-0.016235352,0.013344759,0.038357571,0.028292181
301,33,0.9,2,44.30379747,154,-8104,976,-177,12,-488,-7566,-5798,62,1853,-2152,-3326,62.58,68.72,60.47845345,68.30888889,0,0,0.039124666,0.110596708
301,33,0.9,2,44.93670886,22,-8050,1018,-189,37,-582,-7900.558824,-5752,122.7303371,1686.002008,-1710.609298,-3132.738451,62.58,68.72,60.516398,68.32,0,0,0.037944552,0.011111111
301,33,0.9,2,45.56962025,221.338843,-7955.290507,1134.931818,-206.9431705,-24.89781022,-680.6401274,-8086,-5706,154,1479,-1170,-2911,62.57955606,68.71938574,60.55375659,68.32089844,-0.000443942,-0.00061426,0.037358595,0.000898437
301,33,0.9,2,46.20253165,502,-7892,1228,-231,-91,-770,-7808,-6074,-158,1304,-608,-2533,62.54318807,68.67001653,60.59151592,68.38144531,-0.036367987,-0.049369211,0.03775933,0.060546875
301,33,0.9,2,46.83544304,634.6631732,-7946.133333,1235.386364,-272.2895936,-97.60218978,-838.6501952,-7744,-5876,-432,1181,-257,-2288,62.49562137,68.61626119,60.62780411,68.4,-0.047566697,-0.053755341,0.036288185,0.018554688
301,33,0.9,2,47.46835443,748,-8004,1238,-307,-100,-896,-7527.55789,-6136.296296,-642.2238827,1023.672674,105.176036,-1958.165193,62.45186406,68.56960621,60.66279534,68.4,-0.043757308,-0.046654981,0.034991236,0
301,33,0.9,2,48.10126582,903.9979839,-8009.866667,1117,-315.9954113,-99,-948.4158744,-7135.155295,-6619.703704,-817.0008302,841.7958222,452.5877451,-1581.174492,62.45,68.51972269,60.69971095,68.43331104,-0.001864065,-0.049883513,0.036915607,0.033311037
301,33,0.9,2,48.73417722,998,-8012,996,-324,-98,-987,-6660,-6880,-890,647,676,-1235,62.44794239,68.46981147,60.73799685,68.48672305,-0.002057613,-0.049911221,0.038285903,0.053412018
301,33,0.9,2,49.36708861,971.5555556,-7988.666667,1046.814815,-342.2318696,-110.338713,-1005.298288,-6087.808211,-6873.020408,-859.8658892,464.2809805,778.1636359,-927.3299228,62.40555556,68.41445899,60.78615203,68.51966521,-0.042386831,-0.055352487,0.048155177,0.032942157
301,33,0.9,2,50,922.4444444,-7945.333333,1141.185185,-367.1898539,-133.5663149,-1017.924212,-5362.266152,-6855.020408,-782.1516035,297.987457,844.6531272,-620.0650105,62.39,68.4,60.8332141,68.5463037,-0.015555556,-0.014458986,0.047062069,0.026638493
301,33,0.9,2,50.63291139,896,-7922,1192,-390,-147,-1037,-4513.536628,-6830.408163,-675.8892128,128.7793643,890.4688048,-322.4961795,62.39,68.4,60.85912221,68.55957244,0,0,0.025908109,0.013268736
301,33,0.9,2,51.26582278,928,-8014,1046,-407,-148,-1082,-3571.782445,-6803.591837,-560.1107872,-62.68336256,930.6109998,-43.91434639,62.355,68.4,60.86,68.56,-0.035,0,0.000877792,0.00042756
301,33,0.9,2,51.89873418,1112,-7996,658,-393,-122,-1151,-2567.166409,-6778.979592,-453.8483965,-295.7407888,980.0800434,206.3895722,62.32,68.39693873,60.86,68.56,-0.035,-0.003061266,0,0
301,33,0.9,2,52.53164557,1472.366148,-7957.327635,663.54586,-371.83878,-103.7320261,-1142.300022,-1529.851325,-6760.979592,-376.1341108,-589.7329796,1053.876266,419.1246599,62.32,68.33669041,60.86,68.56,0,-0.060248321,0,0
301,33,0.9,2,53.16455696,1965.698748,-7909.441595,680.2028311,-348.8082789,-89.03267974,-1117.600044,-490,-6754,-346,-964,1167,585,62.32,68.32,60.87251781,68.57669041,0,-0.016690413,0.01251781,0.016690413
301,33,0.9,2,53.79746835,2440,-7886,708,-338,-83,-1079,658,-9572,-1622,-1801,1494,694,62.32,68.32,60.91770405,68.63693873,0,0,0.045186241,0.060248321
301,33,0.9,2,54.43037975,2935.529911,-7934.506944,988.3442408,-344.9473684,-102.3265625,-931.7978031,-305.7639059,-8354,-2121.230769,-1446.168286,958.1015582,1116.669631,62.29,68.32,60.92,68.64,-0.03,0,0.00229595,0.003061266
301,33,0.9,2,55.06329114,3224,-7996,1252,-362,-140,-705,-1650,-7136,-2326,-999,209,1577,62.26,68.32,60.92,68.64,-0.03,0,0,0
301,33,0.9,2,55.69620253,3011.684073,-8010.874589,1239,-412.1954887,-200.6734375,-452.0382449,-2248,-7514,-788,-870,-127,1752,62.26,68.32,60.92,68.64,0,0,0,0
301,33,0.9,2,56.32911392,2526,-8030,1226,-490,-243,-256,-3167.854403,-7448.148148,500.8030408,-884.6831745,-2.985773291,1625.622999,62.26,68.32,60.93391602,68.64,0,0,0.013916016,0
301,33,0.9,2,56.96202532,1526,-8224,1288,-578,-205,-195,-4175.81609,-7325.851852,1609.068187,-924.2552378,259.0284534,1366.357109,62.26,68.32,60.97932617,68.64,0,0,0.045410156,0
301,33,0.9,3,57.59493671,1112.36871,-8334.937765,1085,-627.3853883,-218.0942408,-248.2191436,-4650,-7260,2080,-982,494,1154,62.26,68.285,60.95,68.6,0,-0.035,-0.029326172,-0.04
301,33,0.9,3,58.2278481,940,-8386,882,-662,-246,-334,-3576,-7322,910,-1117,640,1051,62.25921387,68.25,60.92,68.56,-0.000786133,-0.035,-0.03,-0.04
301,33,0.9,3,58.86075949,1428,-8022,974,-686,-292,-396,-2691.893417,-7548.443218,-309.0229472,-1092.387257,574.5217391,1028.86191,62.20623535,68.25,60.92,68.56,-0.052978516,0,0,0
301,33,0.9,3,59.49367089,1393.709961,-8373.472824,601,-841.0409836,-369.6331198,-335.2988571,-2232,-7730,-1042,-1030,448,1021,62.19,68.26623535,60.92,68.54665524,-0.016235352,0.016235352,0,-0.013344759
301,33,0.9,3,60.12658228,1294,-9286,228,-977,-488,-198,-2974,-7584,-1102,-846,292,1081,62.19,68.31921387,60.92,68.48516111,0,0.052978516,0,-0.061494135
301,33,0.9,3,60.75949367,-1512.709961,-14564.52718,849,-682.2574459,-778.9158416,178.7988571,-3774,-7752,-680,-717,266,1044,62.19,68.32,60.92,68.42680828,0,0.000786133,0,-0.058352822
301,33,0.9,3,61.39240506,-4254,-19282,1470,-358,-999,479,-4677.837518,-7508,-44.85541045,-679.5258735,257.2131521,892.581471,62.19,68.32,60.92,68.4,0,0,0,-0.026808284
301,33,0.9,3,62.02531646,-3092,-17382.14815,1117.407407,-307.9126887,-859.7777778,263.3295758,-5202,-7264,360,-649,249,693,62.19,68.32,60.92,68.4,0,0,0,0
301,33,0.9,3,62.65822785,-934,-13853.85185,462.5925926,-276.7341221,-601.2222222,-137.896404,-5071.792,-7287.296,317.1058675,-590.5974453,224.4708489,543.6564062,62.19,68.32,60.92,68.3987299,0,0,0,-0.001270103
301,33,0.9,3,63.29113924,228,-11954,110,-266,-462,-356,-4761.296,-7342.848,212.2776024,-512.1272575,183.8478272,402.7062375,62.19,68.32,60.92,68.38976603,0,0,0,-0.008963869
301,33,0.9,3,63.92405063,-149.1875,-12188.6875,420.3125,-270.0789878,-527.3125,-358.4618266,-4390.704,-7409.152,81.29640359,-427.7583471,139.289381,270.8278657,62.19,68.32,60.92,68.37489718,0,0,0,-0.01486885
301,33,0.9,3,64.55696203,-979,-12705,1103,-282.0439674,-671,-359.4984467,-4080.208,-7464.704,-40.05653014,-351.6596245,102.9539566,148.6996626,62.19,68.32,60.92,68.35731523,0,0,0,-0.01758195
301,33,0.9,3,65.18987342,-1808.8125,-13221.3125,1785.6875,-301.4869633,-814.6875,-360.5358434,-3950,-7488,-116,-298,87,37,62.19,68.32,60.92,68.34021206,0,0,0,-0.017103168
301,33,0.9,3,65.82278481,-2186,-13456,2096,-328,-880,-363,-4020,-7470,-140.9980772,-269.0674342,86.10180995,-64.75630648,62.19,68.32,60.92,68.32677956,0,0,0,-0.013432503
301,33,0.9,3,66.4556962,-1376.884745,-12576.07407,1593.037037,-461.0517224,-879.5543698,-503.3694004,-4090,-7452,-174,-242,85,-149,62.19,68.32,60.92,68.3202096,0,0,0,-0.006569957
301,33,0.9,3,67.08860759,322.8971772,-10941.92593,658.962963,-703.0509568,-878.2198507,-853.0813357,-3774,-7476,-436,-201,65,-209,62.19,68.32,60.92,68.36,0,0,0,0.0397904
301,33,0.9,3,67.72151899,1822,-10062,156,-908,-876,-1316,-3790.162789,-7521.652174,-357.7037037,-129.6487471,22.37708676,-257.8785112,62.19,68.32,60.92,68.4,0,0,0,0.04
301,33,0.9,3,68.35443038,2756.630492,-11272.74251,223.2190461,-1052.448021,-491.8379548,-2190.29787,-3837.881134,-7575.826087,-212.2962963,-41.63526391,-30.25590106,-302.9516964,62.19,68.32,60.92,68.4,0,0,0,0
301,33,0.9,3,68.98734177,3564.384527,-13947.92947,417.5492033,-1176.390677,333.8832033,-3437.833455,-3916,-7602,-134,26,-56,-357,62.19,68.33855469,60.93391602,68.4,0,0.018554688,0.013916016,0
301,33,0.9,3,69.62025316,4356,-16652,728,-1229,1119,-4458,-4214,-7556,-176,61,-55,-435,62.19,68.39910156,60.97932617,68.4,0,0.060546875,0.045410156,0
301,33,0.9,3,70.25316456,5160,-18924,1778,-1142,1686,-5031,-4312,-7542,-386,134,-63,-598,62.19,68.4,60.9444043,68.44746094,0,0.000898437,-0.034921875,0.047460938
301,33,0.9,3,70.88607595,4329,-16946.50305,2085.218631,-1227.5,2182.31118,-5649.151235,-4189.111111,-7557.048433,-376.1471334,213.3453211,-87.15821286,-710.5995204,62.19,68.4,60.92,68.48,0,0,-0.024404297,0.032539062
301,33,0.9,3,71.51898734,3498,-14098,2202,-1313,2446,-6102,-3960.888889,-7597.430199,-344.0720446,294.2806128,-124.0540639,-804.2088511,62.19,68.4,60.92,68.48,0,0,0,0
301,33,0.9,3,72.15189873,3924.531205,-12299.49695,1339,-1267.030556,2225.28969,-6300.774889,-3838,-7656,-286,365,-155,-904,62.17608398,68.38144531,60.92,68.48,-0.013916016,-0.018554688,0,0
301,33,0.9,3,72.78481013,4490,-11372,476,-1179,1815,-6387,-4052,-7790,154,419,-173,-1023,62.13067383,68.32089844,60.92,68.48,-0.045410156,-0.060546875,0,0
301,33,0.9,3,73.41772152,4709.179076,-11495,790.5796404,-1044.969444,1376.311532,-6358.543202,-4163.929025,-7720,201.0261097,435.7634904,-172.7738095,-1157.122046,62.13,68.32,60.92,68.48,-0.000673828,-0.000898437,0,0
301,33,0.9,3,74.05063291,4876,-11618,1326,-953,865,-6293,-4214,-7650,216,450,-172,-1290,62.13,68.32,60.92,68.47340525,0,0,0,-0.006594749
301,33,0.9,3,74.6835443,5036,-11592,1782,-970,293,-6155,-3988,-7718,104,478,-149,-1405,62.13,68.32,60.92,68.41120293,0,0,0,-0.06220232
301,33,0.9,3,75.3164557,4947.293956,-10900.89136,1705.576122,-1001.555486,-173.041522,-5944.063048,-3653.657978,-7711.196751,19.26484976,535.4166596,-155.836478,-1489.935956,62.13,68.32,60.91675917,68.4,0,0,-0.003240831,-0.011202931
301,33,0.9,3,75.94936709,4754,-9846,1528,-1023,-556,-5689,-3292.828989,-7691.949058,-50.81201957,610.927166,-172.672956,-1560.496433,62.13,68.32,60.90043934,68.4,0,0,-0.016319824,0
301,33,0.9,3,76.58227848,4384.597309,-9101.414009,1052.547497,-1005.327586,-892.32963,-5405.931126,-3124,-7662,-80,669,-194,-1606,62.13,68.32,60.87755089,68.4,0,0,-0.02288845,0
301,33,0.9,3,77.21518987,3944,-8458,534,-973,-1094,-5117,-3294,-7572,-38,698,-226,-1627,62.13012,68.32107279,60.85609195,68.3988488,0.000119995,0.001072787,-0.021458942,-0.001151199
301,33,0.9,3,77.84810127,3626,-7958,318,-939,-1131,-4861,-3489.747423,-7574.619048,353.5263882,704.6200361,-217.5142857,-1718.018453,62.13413987,68.35441442,60.83626068,68.36533996,0.004019875,0.033341632,-0.019831272,-0.033508838
301,33,0.9,4,78.48101266,3284.232217,-7475.097891,205.6512912,-908.2058338,-1030.093392,-4543.836793,-3604,-7582,772,707,-199,-1837,62.14330968,68.42153419,60.81476575,68.30630266,0.009169809,0.06711977,-0.021494927,-0.0590373
301,33,0.9,4,79.11392405,2824,-6996,108,-870,-824,-4168,-3193.139344,-7684.380952,875.9257322,675.8120438,-154.9857143,-1935.628099,62.15687957,68.50490752,60.79,68.25,0.013569885,0.083373326,-0.024765754,-0.056302663
301,33,0.9,4,79.74683544,1890,-6510,-22,-796,-525,-3695,-2604,-7782,918,626,-121,-1990,62.17409967,68.58700982,60.75842437,68.20968043,0.017220102,0.082102301,-0.031575631,-0.04031957
301,33,0.9,4,80.37974684,927.1771612,-5955.244836,-241.2272727,-694.0360457,-374.6457113,-3258.214926,-2314,-7682,790,591,-141,-1984,62.19534881,68.65079552,60.72280692,68.1556824,0.021249145,0.063785705,-0.035617448,-0.053998034
301,33,0.9,4,81.01265823,386,-5398,-386,-589,-265,-2843,-2308.957285,-7721,877,565.2892334,-132.6864641,-1965.837641,62.24182796,68.70071114,60.68490921,68.05145662,0.046479151,0.049915616,-0.037897713,-0.104225777
301,33,0.9,4,81.64556962,653.5265393,-4914.410914,-237.2627451,-502.7594352,-175.5531425,-2453.742003,-2304,-7760,964,540,-115,-1951,62.28317993,68.74609022,60.64870013,67.95229008,0.041351964,0.045379084,-0.036209075,-0.099166542
301,33,0.9,4,82.27848101,1024,-4422,-34,-427,-80,-2061,-2138,-7730,944,507,-86,-1950,62.31716686,68.79368138,60.61361915,67.86661505,0.033986937,0.047591164,-0.035080979,-0.085675032
301,33,0.9,4,82.91139241,1210.808206,-3824.138711,58.14098344,-362.4487778,92.64357553,-1615.816497,-1594,-7892,794,492,-51,-1920,62.34146205,68.88036281,60.57644384,67.81601865,0.024295183,0.086681425,-0.037175316,-0.050596393
301,33,0.9,4,83.5443038,1328,-3226,124,-304,264,-1178,-1349.542409,-7857.259259,721.3075506,492.5185185,-64.22222222,-1845.10613,62.36106056,69.00769841,60.53878054,67.75601651,0.019598516,0.127335601,-0.037663299,-0.060002143
301,33,0.9,4,84.17721519,1374,-2728,170,-249,358,-806,-1179.660094,-7792.740741,669.6537753,493.4814815,-88.77777778,-1729.513786,62.38233808,69.1550131,60.50138234,67.6528888,0.021277522,0.147314692,-0.037398202,-0.103127714
301,33,0.9,4,84.81012658,1354.005483,-2084.193805,198.5207612,-182.4522793,420.6622843,-366.4001039,-1116,-7758,650,494,-102,-1609,62.40927723,69.34655275,60.46284629,67.59507644,0.026939146,0.191539649,-0.03853605,-0.057812352
301,33,0.9,4,85.44303797,1296,-1368,212,-102,451,154,-1162,-7892,1000,473,-81,-1492,62.44535489,69.5179297,60.42382839,67.55459706,0.036077655,0.171376951,-0.039017899,-0.040479386
301,33,0.9,4,86.07594937,980,-632,-72,7,337,837,-971,-7882,1204.94186,423.4713993,-67.64637635,-1371.734512,62.52318951,69.36687969,60.38588567,67.50443539,0.077834621,-0.151050014,-0.037942718,-0.050161667
301,33,0.9,4,86.70886076,809.4960961,-472.6659013,-181.7870127,112.4425726,147.3139227,1546.185868,-780,-7872,1300,364,-60,-1255,62.5952168,69.15282439,60.34923901,67.45700298,0.072027294,-0.214055299,-0.03664666,-0.047432416
301,33,0.9,4,87.34177215,656,-416,-266,226,-44,2213,-838,-7948,1160,319,-58,-1150,62.63496692,69.01570905,60.31429265,67.41712304,0.039750122,-0.137115343,-0.034946364,-0.039879938
301,33,0.9,4,87.97468354,440,-430,-372,368,-162,2758,-652.5242718,-8024.986755,1156.778936,287.5314224,-28.64784053,-1038.541716,62.6781798,68.86008922,60.27760549,67.37304352,0.043212878,-0.155619824,-0.036687155,-0.044079515
301,33,0.9,4,88.60759494,252.819849,-390.964112,-343.4814815,574.2410228,-120.8464725,3319.236609,-454,-8068,1154,261,-1,-917,62.71,68.72,60.24,67.32,0.031820199,-0.140089222,-0.03760549,-0.053043521
301,33,0.9,4,89.24050633,89.74325782,-297.7060018,-290.5185185,811.5483464,-19.47072281,3873.31967,-433.4757282,-8061.529412,1097.577586,237.4252666,-7,-774.1911886,62.71,68.65731036,60.19597391,67.22942833,0,-0.062689636,-0.044026091,-0.090571666
301,33,0.9,4,89.87341772,20,-186,-262,1001,109,4337,-426,-8048,1044,213,-13,-623,62.7139202,68.64813508,60.18,67.15365785,0.0039202,-0.009175286,-0.015973909,-0.075770479
301,33,0.9,4,90.50632911,214,-42,-382,1113,302,4667,-434.1016043,-8020.470588,1062.040541,181.5720518,-0.5,-472.7957209,62.76027094,68.75047678,60.18,67.111492,0.04635074,0.102341702,0,-0.042165855
301,33,0.9,4,91.13924051,416.1143314,-127.7710007,-571.4285714,1226.969805,582.6784416,5060.22464,-456,-8000,1104,146,12,-330,62.80641558,68.88623376,60.16628906,67.03619258,0.046144636,0.135756981,-0.013710938,-0.075299419
301,33,0.9,4,91.7721519,698,-334,-694,1345,934,5429,-586.4111567,-8033,1233.959459,110.3878054,6.5,-199.7160006,62.85,69.04,60.12,66.94,0.043584423,0.153766239,-0.046289063,-0.096192581
301,33,0.9,4,92.40506329,1352,-836,-652,1472,1374,5688,-800,-8066,1340,67,1,-90,62.89669471,69.15171733,60.08199255,66.89712499,0.046694712,0.111717325,-0.038007452,-0.042875008
301,33,0.9,4,93.03797468,2098.313242,-1893.529436,-530.8875438,1543.970311,1605.576904,5784.798692,-1016,-8034,1266,-2,27,-14,62.91,69.22509996,60.04387782,66.84157032,0.013305288,0.073382637,-0.038114732,-0.055554674
301,33,0.9,4,93.67088608,2868,-2798,-346,1577,1762,5824,-977,-8047,1175.72561,-39.9724053,37.72563187,48.5508658,62.91,69.27419082,60.00512911,66.750037,0,0.049090856,-0.038748705,-0.091533322
301,33,0.9,4,94.30379747,3718.972476,-3007.364982,-49.61567164,1515.105865,1877.522598,5786.569834,-938,-8060,1122,-68,48,102,62.91,69.28,60,66.68646754,0,0.005809182,-0.005129112,-0.063569457
301,33,0.9,4,94.93670886,4326,-3202,152,1400,1960,5705,-948,-8052,1144,-91,70,145,62.91,69.28,60,66.64,0,0,0,-0.046467539
301,33,0.9,4,95.56962025,4494,-3720,40,1273,2011,5561,-899,-8049.142857,1235.167992,-138.1653672,65,229.7349081,62.94388962,69.31190776,60,66.60208132,0.033889618,0.03190776,0,-0.037918677
301,33,0.9,4,96.20253165,4656.883156,-4328.459438,-270.9874444,1174.616798,2251.880194,5318.018714,-850,-8048,1310,-193,60,324,62.99301882,69.40105923,59.99446289,66.54750667,0.049129201,0.089151472,-0.005537109,-0.05457465
301,33,0.9,4,96.83544304,4894,-4686,-508,1087,2454,5018,-893.7821012,-8075,1269,-236.2221861,67,389.757755,63.03748151,69.63812905,59.94553711,66.44303257,0.044462687,0.237069821,-0.048925781,-0.104474101
301,33,0.9,4,97.46835443,5618.23819,-4662,-510.9927536,1007.949708,2446.304007,4683.133469,-966,-8102,1228,-276,74,453,63.07677379,69.73025781,59.94,66.38590956,0.039292281,0.092128759,-0.005537109,-0.057123015
301,33,0.9,4,98.10126582,6758,-4638,-512,921,2424,4367,-1022,-8070,1304,-313,71,528,63.11381235,69.75965035,59.93946502,66.34535418,0.037038567,0.029392541,-0.000534979,-0.040555374
301,33,0.9,4,98.73417722,8585.093965,-5424.228223,-60.92354865,797.3996621,2032.433475,4163.079571,-1104.101968,-8034.869565,1171.744681,-358.7792714,90,567.9516129,63.15204744,69.72500493,59.90016461,66.28955181,0.038235084,-0.034645421,-0.039300412,-0.055802376
301,33,0.9,4,99.36708861,9832,-6718,734,646,1306,3938,-1156,-8006,1008,-400,109,608,63.19283671,69.6441251,59.88,66.27,0.040789269,-0.080879835,-0.020164609,-0.019551806
301,33,0.9,4,100,9640,-7714,1484,464,432,3494,-1076,-7989.994071,952.2553191,-426.4675743,107.0988372,690.9381897,63.23767809,69.45898079,59.88,66.27,0.044841383,-0.185144306,0,0
301,33,0.9,1,0,9502,-8502,1896,309,-158,3111,-996,-7978,928,-447,103,776,63.27304971,69.44,59.85785874,66.25183313,0.035371616,-0.018980792,-0.022141258,-0.018166871
301,33,0.9,1,0.613496933,9122.051868,-8264.14752,1748.723815,81.82048087,-701.0077922,2628.760785,-1168,-7968,954,-463,96,823,63.31,69.44,59.82,66.2,0.036950294,0,-0.037858742,-0.051833129
301,33,0.9,1,1.226993865,8500,-7982,1380,-153,-1120,2069,-1145.185185,-7996.82963,1052.231725,-505.0968876,118.2962963,875.6621506,63.39963408,69.4946875,59.82,66.13895548,0.089634084,0.0546875,0,-0.061044521
301,33,0.9,1,1.840490798,7520,-7924,342,-329,-1338,1411,-1102.814815,-8056.77037,1195.004751,-565.0330187,159.7037037,930.490352,63.47021373,69.512184,59.8115978,66.12,0.07057965,0.017496502,-0.008402198,-0.018955479
301,33,0.9,1,2.45398773,6588.758097,-7781.035615,106.0791731,-481.6419398,-1207.925926,836.0760701,-1080,-8108,1268,-610,182,980,63.5089467,69.45616935,59.76494606,66.12,0.038732965,-0.056014655,-0.04665174,0
301,33,0.9,1,3.067484663,5718.509065,-7545.974476,-31.92543493,-637.6839052,-882.7407407,254.9287747,-1308,-8136,1126,-630,181,1020,63.54278255,69.39907999,59.76,66.12,0.033835849,-0.057089355,-0.004946061,0
301,33,0.9,1,3.680981595,4846.880822,-7271.478464,-116.3747401,-783.233295,-460,-289.2471832,-1862.508167,-8314.10982,880.285707,-670.6485149,176.625,1010.104844,63.58,69.36,59.76,66.12,0.037217452,-0.039079992,0,0
301,33,0.9,1,4.294478528,3911.501285,-7010.20946,-191.6296586,-904.3975082,-37.25925926,-753.2571003,-2384,-8470,652,-699,173,986,63.68280699,69.36,59.71898438,66.12,0.102806985,0,-0.041015625,0
301,33,0.9,1,4.90797546,2849.998372,-6814.829345,-302.0511065,-987.2839435,287.9259259,-1093.906274,-2580.153603,-8432.623,518.1076984,-693.8518519,179.4814815,902.5742757,63.72,69.36,59.7,66.12,0.037193015,0,-0.018984375,0
301,33,0.9,1,5.521472393,1600,-6738,-492,-1018,418,-1268,-2714.224722,-8345.023778,413.9427381,-683.1481481,191.5185185,756.5392454,63.72,69.36,59.7,66.12,0,0,0,0
301,33,0.9,1,6.134969325,-621.2591987,-8782,-1072.922769,-789.6989437,16.14152644,-1312.904442,-2826,-8244,372,-674,198,619,63.73863623,69.36,59.7,66.12,0.018636227,0,0,0
301,33,0.9,1,6.748466258,-2160,-10826,-1560,-493,-395,-1364,-2924,-8126,644,-669,183,517,63.79,69.36,59.7,66.12,0.051363773,0,0,0
301,33,0.9,1,7.36196319,1751,-8622,-1604.202128,-366.3010563,-409.1415264,-1978.2,-2716.873662,-8632.408163,902.0597613,-658.9240977,222.2186589,393.4404784,63.8438193,69.3053125,59.7,66.12,0.053819298,-0.0546875,0,0
301,33,0.9,1,7.975460123,5662,-6418,-1620,-308,-414,-2548,-2176.87139,-9938.408163,1177.110213,-643.480748,323.361516,246.7603017,63.85019744,69.28,59.7,66.11019744,0.006378137,-0.0253125,0,-0.009802565
301,33,0.9,1,8.588957055,5556.37037,-6529.111111,-1536,-324.5925926,-400.5443212,-2462.627193,-1426.058298,-11724.16327,1448.487845,-625.191314,461.6588921,92.31519572,63.79577041,69.28,59.7,66.05577041,-0.05442703,0,0,-0.05442703
301,33,0.9,1,9.202453988,5292.296296,-6806.888889,-1326,-366.0740741,-365.5862722,-2244.273684,-586.4994998,-13669.83673,1695.529149,-606.5771589,612.3411079,-54.53911342,63.79,69.31253906,59.7,66.05,-0.005770405,0.032539063,0,-0.005770405
301,33,0.9,1,9.81595092,4949,-7168,-1053,-420,-317.2393344,-1949.586842,219.7398918,-15455.59184,1897.570616,-590.1596461,750.638484,-178.4468997,63.79,69.36,59.7,66.05,0,0.047460937,0,0
301,33,0.9,1,10.42944785,4605.703704,-7529.111111,-780,-473.9259259,-263.6169889,-1635.214035,870.5947629,-16761.59184,2033.948736,-578.4601387,851.7813411,-264.0524373,63.79,69.36,59.7,66.05,0,0,0,0
301,33,0.9,1,11.04294479,4341.62963,-7806.888889,-570,-515.4074074,-212.832717,-1357.802632,1244,-17268,2084,-574,891,-296,63.79,69.37508916,59.7,66.03679698,0,0.015089163,0,-0.013203018
301,33,0.9,1,11.65644172,4236,-7918,-486,-532,-173,-1174,1394.627557,-15851.92593,1612.666667,-600.6228218,829.2962963,-218.2320314,63.79,69.43407407,59.7,65.98518519,0,0.058984911,0,-0.051611797
301,33,0.9,1,12.26993865,4422,-7212,-704,-447,-145,-1083,1501.260415,-13222.07407,737.3333333,-655.2456436,714.7037037,-42.68628508,63.79,69.41581577,59.7,65.98,0,-0.018258307,0,-0.005185185
301,33,0.9,1,12.88343558,4696,-7830,380,-336,-167,-825,1628,-11806,266,-700,653,144,63.79,69.35490595,59.7,65.98,0,-0.060909817,0,0
301,33,0.9,1,13.49693252,4666.248108,-7810.986722,367.9365594,-275.7379404,-159.1960165,-606.6121639,1843.206458,-11886.12893,402.448,-721.7014762,691.9450425,312.0436166,63.79,69.29621616,59.7,65.98,0,-0.058689788,0,0
301,33,0.9,1,14.11042945,4586.504323,-7762.640166,337.1696783,-228.892385,-139.0680494,-397.5703698,2127.667265,-12086.62678,727.824,-736.3076664,785.9951274,489.83788,63.78872768,69.28,59.69756908,65.97716393,-0.00127232,-0.016216162,-0.002430921,-0.002836074
301,33,0.9,1,14.72392638,4471.036484,-7698.000249,295.8345175,-190.7778594,-111.5420742,-208.9224938,2414.124843,-12347.66016,1116.176,-749.6631186,900.9726911,678.0103352,63.77660928,69.28,59.67676601,65.95289368,-0.0121184,0,-0.020803072,-0.024270251
301,33,0.9,1,15.33742331,4334.11243,-7630.106888,252.0662378,-156.7088892,-81.54406592,-51.7164118,2635.321614,-12609.3957,1441.552,-767.6123804,1002.70017,877.1885269,63.75709888,69.28,59.65095417,65.92277986,-0.0195104,0,-0.025811837,-0.03011381
301,33,0.9,1,15.95092025,4190,-7572,214,-122,-54,63,2724,-12812,1578,-796,1057,1088,63.73691648,69.28,59.64,65.91,-0.0201824,0,-0.01095417,-0.012779865
301,33,0.9,1,16.56441718,3947.262332,-7512.783247,179.0811084,-89.50286211,-21.33122425,130.6031276,1971.661661,-12930.82674,1127.925926,-880.9030952,1074.604512,1292.170681,63.72278208,69.28,59.64,65.91,-0.0141344,0,0,0
301,33,0.9,1,17.17791411,3776,-7478,150,-56,-1,194,241.1010996,-13032.47956,292.0740741,-1026.991759,1087.191145,1517.116498,63.72,69.27675877,59.64,65.91,-0.00278208,-0.003241228,0,0
301,33,0.9,1,17.79141104,3803.00312,-7498.9375,129.2217893,-13.3899362,-5.0625,290.4932084,-1678,-13194,-158,-1178,1092,1832,63.72,69.24902134,59.64,65.91,0,-0.027737429,0,0
301,33,0.9,1,18.40490798,3869.508321,-7545,110.5860349,35.35804812,-14,408.8554481,-4142.064063,-13713.89271,-153.5763629,-1349.094533,902.2461874,2493.764,63.72,69.21460556,59.64,65.87352534,0,-0.034415783,0,-0.036474659
301,33,0.9,1,19.01840491,3953.759361,-7591.0625,97.15726309,87.42700838,-22.9375,536.5399637,-6884.698698,-14580.14002,-138.0416146,-1525.713933,481.1590414,3460.034758,63.72,69.2,59.64,65.83,0,-0.01460556,0,-0.043525341
301,33,0.9,1,19.63190184,4034,-7612,92,140,-27,661,-8182,-15404,-108,-1607,51,4351,63.72,69.2,59.64,65.83,0,0,0,0
301,33,0.9,1,20.24539877,4120.821349,-7609.712,133.4880169,202.0150565,-7.344,774.781151,-6498,-16038,462,-1544,-320,5014,63.7090625,69.19113748,59.64,65.83,-0.0109375,-0.008862523,0,0
301,33,0.9,1,20.85889571,4225.204018,-7604.256,236.6240507,274.8619386,39.528,884.1047993,-6381.998037,-15120.61527,1279.161017,-1505.875,-249.5858319,5274.187526,63.65300781,69.13086402,59.64,65.83,-0.056054688,-0.060273461,0,0
301,33,0.9,1,21.47239264,4325.976012,-7597.744,369.416076,344.4012924,95.472,996.9378721,-6286,-13318,1792,-1488,-54,5381,63.65,69.07265067,59.64,65.83,-0.003007812,-0.058213347,0,0
301,33,0.9,1,22.08588957,4401.965337,-7592.288,499.8720676,396.4937641,142.344,1121.247297,-5868,-10984,1324,-1524,797,5260,63.64996048,69.04,59.64,65.83,-3.95E-05,-0.032650669,0,0
301,33,0.9,1,22.6993865,4432,-7590,596,417,162,1265,-5511.353638,-10421.71659,637.7842466,-1476.058873,1584.492369,5150.526425,63.64550242,69.04,59.64,65.83,-0.004458061,0,0,0
301,33,0.9,1,23.31288344,4259.756997,-7618.133169,668.0749736,400.5,122.5,1481.510789,-5146,-10106,204,-1386,2240,5030,63.63464491,69.04,59.64,65.83,-0.010857506,0,0,0
301,33,0.9,1,23.92638037,3946,-7652,706,384,83,1665,-4705.081592,-9864.807751,231.4814815,-1271.049381,2783.552509,4869.943756,63.61879875,69.04,59.64,65.83,-0.015846166,0,0,0
301,33,0.9,1,24.5398773,3549.024599,-7662.281774,630.8148148,393.6731885,91.12772269,1738.026442,-4216.610772,-9676.01003,282.5185185,-1137.144645,3243.887365,4678.352062,63.5993747,69.04,59.64,65.83,-0.01942404,0,0,0
301,33,0.9,1,25.15337423,3108.290077,-7669.363109,491.1851852,414.9019326,108.3665565,1787.883886,-3708,-9422,310,-1048,3438,4467,63.57761177,69.04,59.64,65.83,-0.02176294,0,0,0
301,33,0.9,1,25.76687117,2900,-7672,416,436,124,1831,-3134.018773,-8960.297777,251.4353448,-1013.4077,3391.981403,4229.80618,63.54081171,69.04,59.64,65.83,-0.036800052,0,0,0
301,33,0.9,1,26.3803681,2960,-7588,668,453,134,1871,-2504.426656,-8310.945869,97.82758621,-992.1137315,3266.03374,3964.1237,63.49989575,69.04,59.64161703,65.83191169,-0.040915965,0,0.001617025,0.001911688
301,33,0.9,2,26.99386503,2917.282151,-7598.828125,705.3703831,441.9140625,130.3782252,1896.455392,-1929.121211,-7600.121026,-117.6939655,-971.2628969,3078.319208,3686.879369,63.45827563,69.04,59.65251781,65.84628575,-0.041620121,0,0.010900785,0.014374065
301,33,0.9,2,27.60736196,2801.735231,-7627.375,735.5748487,412.6875,120.5199865,1920.508433,-1518,-6954,-362,-938,2847,3415,63.41675035,69.03361127,59.66911776,65.87268421,-0.041525278,-0.006388729,0.01659995,0.026398457
301,33,0.9,2,28.2208589,2632.269182,-7667.734375,759.2863007,371.3671875,105.9359122,1942.545243,-1231.900857,-6401.094218,-822.9137931,-868.9500586,2354.641819,3155.271929,63.37492133,69.01147275,59.6859891,65.90865523,-0.041829014,-0.022138521,0.016871339,0.035971016
301,33,0.9,2,28.83435583,2427.793948,-7714,777.1776433,324,88.13663075,1961.951941,-1092,-5874,-1160,-772,1778,2887,63.33383385,68.98020413,59.69770405,65.95174697,-0.041087487,-0.031268623,0.011714951,0.043091743
301,33,0.9,2,29.44785276,2207.219471,-7760.265625,789.9217804,276.6328125,68.63277042,1978.114646,-1125.824,-5315.08147,-1127.743622,-666.190153,1355.095847,2609.796318,63.2947297,68.94301639,59.7,66.00532728,-0.039104142,-0.037187736,0.00229595,0.053580308
301,33,0.9,2,30.06134969,1989.455692,-7800.625,798.1916162,235.3125,48.9349596,1990.419478,-1217.632,-4697.024545,-1039.728435,-548.6295311,925.667511,2336.5702,63.25761903,68.88891557,59.7,66.09994753,-0.03711067,-0.054100819,0,0.094620256
301,33,0.9,2,30.67484663,1793.412554,-7829.171875,802.6600547,206.0859375,30.55382667,1998.252556,-1352.928,-4047.616001,-909.0853556,-420.4588286,501.7369072,2062.972034,63.21907612,68.85049162,59.70197186,66.2057125,-0.038542913,-0.038423949,0.001971857,0.105764969
301,33,0.9,2,31.28834356,1638,-7840,804,195,15,2001,-1517.216,-3394.642614,-748.9453037,-282.8187402,95.32594993,1784.652206,63.17998562,68.81964115,59.70945716,66.32720166,-0.039090499,-0.030850477,0.007485305,0.121489155
301,33,0.9,2,31.90184049,1524,-7764,740,204,2,1961,-1696,-2765.891158,-572.4391976,-136.8499605,-281.5434462,1497.261103,63.14027414,68.79166447,59.72161275,66.45604173,-0.039711487,-0.027976671,0.012155586,0.128840079
301,33,0.9,2,32.51533742,1286.077123,-7770.480457,670.2611094,220.9235802,6.127849603,1873.714164,-1874.784,-2189.148409,-392.6979556,16.30681615,-616.8493667,1196.449112,63.09979495,68.76245617,59.73746572,66.58302714,-0.040479184,-0.029208302,0.015852972,0.12698541
301,33,0.9,2,33.12883436,994.3718948,-7789.849803,603.6861102,241.3552962,16.70014365,1748.984339,-2039.072,-1692.201143,-222.8524963,175.510895,-898.5698969,877.8666194,63.05840136,68.7279108,59.75604318,66.69895229,-0.041393593,-0.034545371,0.018577464,0.115925149
301,33,0.9,2,33.74233129,852,-7822,574,253,31,1629,-2174.368,-1302.836136,-76.0337383,339.6215817,-1114.683122,537.164012,63.01492829,68.6718894,59.78888656,66.79263803,-0.043473066,-0.0560214,0.032843381,0.093685732
301,33,0.9,2,34.35582822,852,-7954,738,255,57,1530,-2266.176,-1048.840163,34.62739998,507.4981815,-1253.167128,169.9916766,62.97170695,68.64,59.82486149,66.8952103,-0.043221339,-0.031889401,0.03597493,0.102572274
301,33,0.9,2,34.96932515,661.4815951,-7949,998.8318891,239.3395062,5.5,1423.36745,-2300,-958,96,678,-1302,-228,62.9317069,68.64,59.84370204,67.06870776,-0.040000049,0,0.01884055,0.17349746
301,33,0.9,2,35.58282209,450,-7944,1168,212,-46,1302,-2296.531038,-1014.520728,120.5057504,863.7580632,-1082.839934,-728.4961069,62.89328926,68.64,59.85883625,67.26179452,-0.038417649,0,0.015134208,0.193086757
301,33,0.9,2,36.19631902,412.5591166,-7955.44,1158.224,188.3737229,-45.00452174,1145.134944,-2288.173187,-1137.263678,137.666151,1066.115551,-629.2354244,-1311.98029,62.85528186,68.64,59.87763483,67.39335152,-0.038007397,0,0.018798578,0.131557003
301,33,0.9,2,36.80981595,383.9090061,-7982.72,1134.912,163.8707984,-42.29356522,957.467472,-2278,-1256,160,1267,-247,-1846,62.81651257,68.64,59.90750096,67.43558379,-0.038769293,0,0.029866131,0.042232271
301,33,0.9,2,37.42331288,363.7793374,-8015.28,1107.088,137.9810124,-38.28034783,759.532528,-2267.908527,-1363.181908,206.6775971,1462.820272,5.126084046,-2303.627644,62.77566779,68.64,59.9435627,67.47620046,-0.040844773,0,0.03606174,0.040616666
301,33,0.9,2,38.03680982,351.8997791,-8042.56,1083.776,110.194151,-33.37808696,571.8650559,-2255.479077,-1477.661696,271.546753,1658.980283,241.8065192,-2735.870429,62.72674769,68.64,59.98113821,67.57632653,-0.048920107,0,0.037575508,0.10012607
301,33,0.9,2,38.65030675,348,-8054,1074,80,-28,415,-2237.310089,-1568.810636,329.1425324,1850.900153,417.3336947,-3127.177999,62.70058461,68.63534208,60.01836669,67.67903389,-0.026163079,-0.004657923,0.037228486,0.102707368
301,33,0.9,2,39.26380368,596.9394058,-8047,1222,41.96628869,-17.63043478,284.6434117,-2210,-1606,354,2034,486,-3462,62.68726479,68.60419859,60.05459196,67.77912592,-0.013319821,-0.031143486,0.036225266,0.100092027
301,33,0.9,2,39.87730061,850,-8040,1370,6,-10,187,-2067.746377,-1474,-126.406639,2214.350578,392.7936817,-3773.171207,62.67809118,68.55755136,60.09071388,67.87106646,-0.009173609,-0.04664723,0.036121919,0.091940539
301,33,0.9,2,40.49079755,857.1471212,-8048.944,1303.44,-20.29346962,-15.33045333,127.6515718,-1942,-1342,-814,2368,190,-3963,62.66922169,68.51172012,60.12753328,67.9420506,-0.008869486,-0.045831244,0.036819402,0.070984138
301,33,0.9,2,41.10429448,862.2705113,-8070.272,1144.72,-44.04078269,-28.35136,82.90573157,-2010.160768,-1491.979324,-1237.085062,2496.053005,-188.812684,-4014.774902,62.65681424,68.48302459,60.16610899,67.99246129,-0.012407452,-0.028695527,0.03857571,0.050410696
301,33,0.9,2,41.71779141,865.6203409,-8095.728,955.28,-64.84136096,-44.60704,45.13410538,-2185.928716,-1873.778198,-1629.186722,2616.880449,-784.1590971,-4052.355469,62.63335476,68.48653228,60.19863378,68.03595101,-0.023459484,0.003507688,0.032524789,0.043489712
301,33,0.9,2,42.33128834,867.4467803,-8117.056,796.56,-82.29462615,-59.64181333,6.708319458,-2426.232305,-2385.187973,-1917.695021,2706.767668,-1441.925962,-4075.258301,62.58781997,68.52147999,60.2266985,68.07884002,-0.045534787,0.034947716,0.028064715,0.042889016
301,33,0.9,2,42.94478528,868,-8126,730,-96,-69,-40,-2688,-2924,-2030,2742,-2008,-4083,62.53279126,68.57640455,60.25222967,68.12026477,-0.055028714,0.054924554,0.025531177,0.04142475
301,33,0.9,2,43.55828221,866.3915427,-8100,732.6883464,-105.6441757,-73.18674988,-96.12440277,-2981.780956,-3655.132701,-1846.962963,2683.661851,-2484.0535,-4009.994785,62.48297665,68.63965337,60.27661878,68.15905879,-0.049814606,0.063248822,0.024389113,0.038794017
301,33,0.9,2,44.17177914,861.6546282,-8038,740.7050393,-112.5350445,-76.15864963,-157.2623553,-3367.911311,-4522.414112,-1507.037037,2545.768147,-2923.313755,-3835.434014,62.45308419,68.69957389,60.30125731,68.1940556,-0.029892463,0.05992052,0.024638522,0.034996816
301,33,0.9,2,44.78527607,853.9219424,-7964,753.9775589,-118.7038255,-78.63717445,-222.7381065,-3878,-5092,-1324,2384,-3249,-3626,62.45,68.75478116,60.32753671,68.22408875,-0.003084186,0.055207272,0.026279405,0.030033148
301,33,0.9,2,45.39877301,843.326171,-7902,772.4333857,-126.1817377,-81.34379951,-291.8759051,-4914.849952,-5283.936958,-1437.555556,2186.342262,-3491.172882,-3358.175151,62.45,68.7994648,60.35684847,68.24799177,0,0.044683639,0.029311761,0.023903012
301,33,0.9,2,46.01226994,830,-7876,796,-137,-85,-364,-6294.408238,-5405.569438,-1648.444444,1944.336744,-3686.030885,-3019.001324,62.45,68.7917013,60.39045149,68.26791742,0,-0.007763503,0.03360302,0.019925655
301,33,0.9,2,46.62576687,770.6012701,-7935.62963,924.7842229,-156.821295,-90.2302022,-442.1738191,-7168,-5604,-1762,1719,-3766,-2691,62.45,68.76640018,60.4277606,68.28703997,0,-0.025301117,0.037309106,0.019122546
301,33,0.9,2,47.2392638,675.6339684,-8046.37037,1136.614334,-185.8655831,-96.76830667,-526.5307543,-7394,-6156,-1474,1537,-3665,-2407,62.45,68.7296121,60.46720627,68.30341302,0,-0.036788085,0.039445672,0.016373058
301,33,0.9,2,47.85276074,626,-8106,1248,-218,-104,-612,-7520.239594,-6532.385809,-1043.198169,1321.414387,-3538.667953,-2006.364106,62.45,68.68696433,60.50721568,68.31504786,0,-0.042647771,0.040009415,0.01163484
301,33,0.9,2,48.46625767,657.6863905,-8096.723292,1233.576208,-258.3668733,-113.1752102,-713.3447621,-7658,-6716,-750,1079,-3359,-1587,62.45,68.64408415,60.54621602,68.31995576,0,-0.042880177,0.039000335,0.004907894
301,33,0.9,2,49.0797546,740.4970414,-8075.595445,1196.703222,-307.0098023,-124.0935107,-826.6675663,-8075.870729,-6631.481481,-723.997712,783.1219701,-2974.506437,-1231.666175,62.45,68.58555318,60.58392629,68.27847168,0,-0.058530974,0.037710265,-0.041484079
301,33,0.9,2,49.69325153,856.0591716,-8052.669875,1146.978625,-350.1478302,-133.9650558,-918.9065874,-8647.935365,-6474.518519,-711.9331315,463.1943184,-2411.552472,-902.8098913,62.44667793,68.56,60.62163812,68.2515552,-0.003322074,-0.025553175,0.037711832,-0.02691648
301,33,0.9,2,50.30674847,986,-8038,1094,-374,-140,-957,-8936,-6390,-688,209,-1879,-607,62.40834208,68.56,60.6664193,68.2751472,-0.038335846,0,0.044781182,0.023592
301,33,0.9,2,50.9202454,1150.50343,-8032.359928,1021.264043,-381.5938392,-143.0277976,-956.88764,-8510,-6662,-588,55,-1459,-357,62.37764284,68.55268812,60.71394691,68.3160192,-0.03069924,-0.007311876,0.047527608,0.040872
