locomotion_mode,terrain_info,walk_speed_info,gait_phase,gait_percentage,left_accel_x,left_accel_y,left_accel_z,left_gyro_x,left_gyro_y,left_gyro_z,right_accel_x,right_accel_y,right_accel_z,right_gyro_x,right_gyro_y,right_gyro_z,left_hip_angle,left_knee_angle,right_hip_angle,right_knee_angle,left_hip_angle_vel,left_knee_angle_vel,right_hip_angle_vel,right_knee_angle_vel
301,33,0.9,1,0,4653.622438,-4621.703556,1146.060827,95.53686636,751.5515736,3014.255981,-1404,-8048,934,-405,132,242,63.53832516,69.70942907,59.7,65.91,0.021313577,0.029429066,0.000598412,0
301,33,0.9,1,0.546448087,3758,-5438,1118,-18,256,3054,-1338,-7914,848,-435,114,330,63.55241701,69.7799308,59.7,65.91,0.014091854,0.07050173,0,0
301,33,0.9,1,1.092896175,3697.786088,-5782.312834,795.6384094,-166.9012238,22.63037543,2968.566382,-1326.092105,-7972,872.6851852,-454.7357143,122.5867347,406.3183903,63.5684703,69.8400519,59.7,65.91,0.01605329,0.060121107,0,0
301,33,0.9,1,1.639344262,3640,-6060,334,-305,-81,2807,-1322,-8030,910,-471,132,474,63.60249846,69.85,59.71391602,65.91,0.034028161,0.009948097,0.013916016,0
301,33,0.9,1,2.18579235,3109.591474,-6480.099231,-7.699236641,-411.315022,139.2360326,2635.569116,-1396,-8030,932,-486,133,531,63.64936915,69.85,59.75932617,65.91,0.046870687,0,0.045410156,0
301,33,0.9,1,2.732240437,2632,-6738,-192,-481,550,2410,-1614,-7950,876,-520,133,608,63.65,69.79660645,59.76,65.91,0.000630849,-0.053393555,0.000673828,0
301,33,0.9,1,3.278688525,3225.450439,-6673,-114.9869252,-512.459276,1126.263967,2025.444252,-1828.624968,-7944.921552,758.0182738,-526.3630081,134.9732019,641.1575687,63.65518519,69.76666667,59.76,65.91,0.005185185,-0.029939779,0,0
301,33,0.9,1,3.825136612,3882,-6608,62,-526,1512,1652,-2027.563814,-7943.157746,612.8980258,-529.5739695,140.0575149,663.838947,63.70679698,69.83302469,59.76,65.91,0.051611797,0.066358025,0,0
301,33,0.9,1,4.371584699,3960.174005,-7064.756898,505.1661142,-498,1490.005168,1469.995568,-2134,-7938,542,-534,147,674,63.72,69.82912598,59.76,65.91,0.013203018,-0.003898715,0,0
301,33,0.9,1,4.918032787,3998.215846,-8025.069352,1203.033761,-446,1425.343669,1335.314913,-2156,-7838,606,-543,160,676,63.72,69.76101074,59.76,65.91,0,-0.068115234,0,0
301,33,0.9,1,5.464480874,4080,-8874,1808,-418,1320,1150,-2167.600231,-7852.518519,650.2006135,-558.0526316,159.7526679,684.3150685,63.72,69.76,59.7381579,65.91,0,-0.001010742,-0.021842096,0
301,33,0.9,1,6.010928962,4534,-9382,2186,-448,928,790,-2176.687641,-7879.481481,685.5447512,-577.5263158,159.0608914,696.6575342,63.72,69.7565625,59.68852076,65.91,0,-0.0034375,-0.049637146,0
301,33,0.9,1,6.557377049,4501.857623,-9583.19256,2096,-379.8282164,593.8607909,601.6055226,-2198,-7894,700,-597,158,703,63.72,69.6925,59.60597628,65.91,0,-0.0640625,-0.08254448,0
301,33,0.9,1,7.103825137,4420,-9666,2006,-269,262,450,-2700,-7838,444,-615,155,655,63.72,69.68,59.55558766,65.91,0,-0.0125,-0.050388614,0
301,33,0.9,1,7.650273224,4095.556788,-9369.588933,2029,-184.3599776,-143.3955253,256.0400688,-2780.774802,-7888.633588,484.8227848,-622.4390064,167.8301887,576.4979792,63.72,69.68,59.5234581,65.91,0,0,-0.032129565,0
301,33,0.9,1,8.196721311,3642,-8794,2052,-106,-516,122,-2808,-7972,544,-629,187,493,63.72,69.68,59.4803216,65.86647466,0,0,-0.043136502,-0.043525341
301,33,0.9,1,8.743169399,3306,-8074,1770,-39,-761,92,-2724,-8052.366412,582.1772152,-640.290679,199.7899231,430.8435171,63.71699219,69.68,59.46063444,65.83,-0.003007812,0,-0.019687152,-0.036474659
301,33,0.9,1,9.289617486,8754,-32768,4522,850,-1347,-2164,-2640,-8100,602,-653,208,374,63.6609375,69.68,59.47803156,65.83,-0.056054688,0,0.017397112,0
301,33,0.9,1,9.836065574,-5782,12756,2040,1544,-2115,-1272,-2679.505249,-8030,587.5674092,-667.0056545,210.1365611,318.1047072,63.65,69.68,59.50444444,65.83,-0.0109375,0,0.026412889,0
301,33,0.9,1,10.38251366,-1279.383567,5361.511535,-2168.325306,354,-1077,-1134.880698,-2761.232719,-7900,547.3570406,-680.780605,211.2600869,263.3065593,63.65,69.68,59.51983805,65.83,0,0,0.015393605,0
301,33,0.9,1,10.92896175,3542,-3014,-4952,-836,-39,-1089,-2830,-7830,486,-687,214,205,63.60847168,69.64328099,59.52,65.83,-0.04152832,-0.036719013,0.00016195,0
301,33,0.9,1,11.47540984,4113.028426,-4801.56908,-4699.589331,-793.5877042,-42.43362374,-1159.888889,-2866,-7930,316,-685,247,139,63.58,69.58353749,59.52,65.83,-0.02847168,-0.059743493,0,0
301,33,0.9,1,12.02185792,4557.734163,-6245.670644,-4043.441413,-683.4806535,-52.14315151,-1337.111111,-2772.073298,-8262.179146,426.0309735,-677.0405405,277.7315207,95.11873144,63.58,69.5277123,59.52,65.83,0,-0.055825198,0,0
301,33,0.9,1,12.56830601,4886.1507,-7354.534606,-3135.182385,-531.3736028,-67.24156818,-1567.5,-2590,-8626,640,-666,317,47,63.56285365,69.52,59.52,65.80999593,-0.017146346,-0.007712296,0,-0.020004071
301,33,0.9,1,13.1147541,5108.311526,-8136.390878,-2126.438382,-362.961307,-86.84185858,-1797.888889,-2337.324512,-8759.342149,981.9690265,-654.6891892,398.9827426,-53.64769759,63.52059841,69.52,59.52,65.76069815,-0.042255241,0,0,-0.049297781
301,33,0.9,1,13.66120219,5234.25013,-8599.469371,-1168.835541,-203.9385211,-110.0570076,-1975.111111,-2102,-8926,1220,-648,504,-161,63.52,69.47994657,59.52,65.80152832,-0.000598412,-0.040053433,0,0.040830173
301,33,0.9,1,14.20765027,5274,-8752,-414,-80,-136,-2046,-1996,-9772,514,-815,604,-225,63.51692245,69.43070764,59.52,65.83,-0.003077549,-0.049238929,0,0.02847168
301,33,0.9,1,14.75409836,4174,-7522,122,6,-182,-1341,-548,-10708,302,-872,620,-283,63.47424995,69.40753847,59.52,65.83,-0.042672502,-0.023169164,0,0
301,33,0.9,1,15.30054645,3709.293036,-7569.055844,15.125,67.64457572,-140.75,-1389.75,-96.25868844,-11439.14954,410.75,-906.8156888,642.0628298,-247.1727427,63.41447995,69.38848643,59.52,65.83,-0.059769998,-0.019052041,0,0
301,33,0.9,1,15.84699454,3351.427143,-7678.315583,-220,121.912417,-50,-1497,185.5851444,-12119.13293,650,-936.5306122,668.3489425,-154.9606472,63.3803562,69.36325871,59.52,65.83,-0.034123753,-0.025227725,0,0
301,33,0.9,1,16.39344262,3121.347679,-7801.917531,-455.125,164.2240498,40.75,-1604.25,399.636405,-12620.54985,889.25,-957.2302296,694.2105839,-29.26822813,63.42152832,69.30677767,59.52,65.83,0.041172122,-0.056481038,0,0
301,33,0.9,1,16.93989071,3040,-7892,-562,190,82,-1653,648,-12816,998,-965,715,107,63.45,69.28,59.51505394,65.83,0.02847168,-0.02677767,-0.004946061,0
301,33,0.9,1,17.4863388,3804,-7950.342208,352,204.4954044,67.26508621,-1509.82999,1022.888683,-12666.36287,819,-932.5,732.676013,287.0741611,63.45,69.28,59.4684022,65.83,0,0,-0.04665174,0
301,33,0.9,1,18.03278689,4568,-7980,1266,211,39,-1244,1248,-12400,640,-900,742,489,63.45,69.2546875,59.46,65.8553125,0,-0.0253125,-0.008402198,0.0253125
301,33,0.9,1,18.57923497,4487.887324,-7851,1242.958217,166.6026728,-4.265086207,-922.5507038,1236.864553,-12147.00298,682.5874126,-907.4519231,694.5,664.5809876,63.45,69.2,59.46,65.91,0,-0.0546875,0,0.0546875
301,33,0.9,1,19.12568306,4280,-7722,1178,104,-34,-631,1206,-11868,760,-925,647,821,63.40583147,69.2,59.46,65.91,-0.044168532,0,0,0
301,33,0.9,1,19.67213115,3608,-7792,874,75,-24,-490,888.7357774,-11488.63415,821.9945336,-982.5480769,805.2307692,946.3890846,63.38,69.20659475,59.46062208,65.90917056,-0.025831468,0.006594749,0.00062208,-0.00082944
301,33,0.9,1,20.21857923,3392.031414,-7816.335616,537.6658796,83.73605948,-0.5,-397.1571969,554,-11252,926,-1030,1021,1061,63.38,69.26879707,59.47005888,65.89658816,0,0.06220232,0.0094368,-0.0125824
301,33,0.9,1,20.76502732,3308,-7826,344,100,23,-311,508,-11408,1408,-999,1109,1177,63.38,69.27627348,59.48640768,65.87478976,0,0.00747641,0.0163488,-0.0217984
301,33,0.9,1,21.31147541,3540,-7708,698,118,33,-203,-463.0235437,-11927.79202,1199,-1083.775726,1106.597744,1357.862187,63.38,69.25634972,59.50390848,65.85145536,0,-0.019923755,0.0175008,-0.0233344
301,33,0.9,1,21.8579235,3530,-7734,1164,106,13,-130,-1958,-12674,990,-1215,1100,1596,63.38,69.22507277,59.51680128,65.83426496,0,-0.031276957,0.0128928,-0.0171904
301,33,0.9,1,22.40437158,3433.86,-7737.026316,1079,57.56716418,-19.11176471,-48.06931187,-2837.279243,-13517.03282,1693,-1283.394824,1068.540754,1850.697703,63.38,69.18912096,59.51505394,65.83,0,-0.035951805,-0.001747341,-0.00426496
301,33,0.9,1,22.95081967,3346,-7738,994,18,-40,43,-4038,-14178,2396,-1378,976,2276,63.38,69.15517266,59.4684022,65.83,0,-0.033948298,-0.04665174,0
301,33,0.9,1,23.49726776,3472.256,-7726.144,1022.288,29.752,-31.056,139.5847449,-8086,-14400,-566,-1767,-155,3827,63.38,69.12990622,59.46,65.83,0,-0.025266438,-0.008402198,0
301,33,0.9,1,24.04371585,3773.328,-7697.872,1089.744,57.776,-9.728,239.6523451,-6250,-13728,76,-1779,57,4123,63.38,69.12,59.46,65.83,0,-0.009906225,0,0
301,33,0.9,1,24.59016393,4132.672,-7664.128,1170.256,91.224,15.728,348.8275729,-5698.840543,-13230.38821,234.3352183,-1875.126095,515.0374658,4227.609223,63.38,69.17047832,59.43095176,65.78583147,0,0.050478323,-0.029048244,-0.044168532
301,33,0.9,1,25.13661202,4433.744,-7635.856,1237.712,119.248,37.056,472.7352005,-5365.556125,-12806.12774,329.9453869,-2033.618603,1136.201906,4291.932108,63.38,69.19559268,59.38725898,65.76,0,0.025114358,-0.043692775,-0.025831468
301,33,0.9,1,25.68306011,4560,-7624,1266,131,46,617,-5112,-12400,362,-2117,1638,4377,63.38,69.14027662,59.34387467,65.76,0,-0.055316064,-0.043384312,0
301,33,0.9,1,26.2295082,4263.164186,-7642.586035,1259.591143,63.02788845,-8.131789137,845.6008343,-4900,-12002,-1014,-2069,1918,4534,63.38,69.04518731,59.34,65.78583147,0,-0.095089302,-0.003874669,0.025831468
301,33,0.9,1,26.77595628,3732,-7682,1238,-10,-68,1046,-4726,-11716,-1566,-1823,2164,4829,63.38,68.96,59.34,65.83,0,-0.085187315,0,0.044168532
301,33,0.9,2,27.32240437,3208,-7746,770,-16,-75,1116,-4411.194912,-11466.95763,-1030,-1634.165388,2261.73702,4820.404544,63.33583147,68.96,59.30214126,65.83,-0.044168532,0,-0.037858742,0
301,33,0.9,2,27.86885246,3048.131446,-7764.033019,378.0838046,39.44339126,-40.67983659,1167.180803,-4080,-11174,-494,-1483,2302,4800,63.31,68.96,59.28,65.83738281,-0.025831468,0,-0.022141258,0.007382813
301,33,0.9,2,28.41530055,2949.560924,-7774.438797,41.15301342,154.2201159,26.08477127,1210.852027,-3852.971034,-10662.71414,-628.992,-1361.935729,2206.965044,4741.769265,63.31,68.96,59.28,65.90261719,0,0,0,0.065234375
301,33,0.9,2,28.96174863,2892,-7786,-102,251,71,1256,-3662.017574,-9941.458931,-950.896,-1255.909318,1960.495132,4624.409605,63.28785874,68.96,59.30214126,65.91,-0.022141258,0,0.022141258,0.007382812
301,33,0.9,2,29.50819672,2852.045266,-7806.766617,247,307.5120544,84.97314949,1305.431751,-3487.378598,-9128.246659,-1335.104,-1161.015041,1620.542698,4463.065314,63.25,68.96,59.34,65.91,-0.037858742,0,0.037858742,0
301,33,0.9,2,30.05464481,2834,-7820,596,349,91,1358,-3309.293081,-8341.089592,-1657.008,-1073.347177,1245.060176,4272.880681,63.25,68.9053125,59.34,65.99298703,0,-0.0546875,0,0.082987035
301,33,0.9,2,30.6010929,2920,-7806,556,374,83,1417,-3108,-7698,-1792,-989,892,4069,63.24315373,68.88,59.34,66.06813073,-0.00684627,-0.0253125,0,0.075143697
301,33,0.9,2,31.14754098,2845.625,-7791.264098,548.5675676,408.0131579,84.5,1502.693679,-2810.129032,-7212.690414,-1735.764706,-915.737068,548.7801745,3805.165985,63.19579114,68.88,59.34,66.10150589,-0.047362589,0,0,0.033375162
301,33,0.9,2,31.69398907,2710,-7776,546,429,86,1582,-2622,-6794,-1664,-838,169,3477,63.1621518,68.87261719,59.34,66.16726718,-0.033639339,-0.007382812,0,0.065761288
301,33,0.9,2,32.24043716,2572.353215,-7756.129032,796.0851064,425.1315789,84.18518519,1627.178573,-2624,-6430,-1642,-724,-259,3104,63.13349945,68.84,59.34,66.27,-0.028652349,-0.032617188,0,0.102732818
301,33,0.9,2,32.78688525,2416,-7744,1122,415,79,1664,-2624,-6024.788553,-1601.920688,-594.7127445,-541.1555179,2790.39294,63.11383191,68.80738281,59.38101563,66.36440931,-0.019667546,-0.032617187,0.041015625,0.094409314
301,33,0.9,2,33.33333333,2244,-7842,1232,381,53,1700,-2624,-5547.629926,-1546.869153,-451.4222416,-771.5718825,2498.939053,63.11,68.8,59.4,66.45525822,-0.003831906,-0.007382812,0.018984375,0.090848903
301,33,0.9,2,33.87978142,2042.80566,-7869.380736,1060,361.8009709,17.4325097,1715.477387,-2624,-4854,-1488,-284,-1035,2170,63.11,68.8,59.4,66.54175927,0,0,0,0.086501052
301,33,0.9,2,34.42622951,1802,-7888,888,353,-5,1722,-2420,-3332,-1426,-62,-1392,1748,63.10678551,68.8,59.4040469,66.64076451,-0.003214491,0,0.004046899,0.099005242
301,33,0.9,2,34.9726776,1419.161149,-7915.622222,976.1787709,354,-5.745762712,1702.324974,-2264.798262,-2485.924926,-1352.960967,85.36761048,-1628.284317,1333.907567,63.09220878,68.8,59.42081245,66.74978435,-0.014576727,0,0.016765554,0.109019837
301,33,0.9,2,35.51912568,1108,-7932,1144,355,-6,1659,-2174,-1900,-1310,205,-1770,945,63.06806737,68.8,59.44479052,66.86670865,-0.02414141,0,0.023978065,0.116924304
301,33,0.9,2,36.06557377,1024,-7908,1342,311,21,1580,-2156,-1504,-1364,310,-1814,609,63.02880507,68.8,59.47159645,66.99322382,-0.039262304,0,0.026805936,0.126515171
301,33,0.9,2,36.61202186,1239,-7841.88601,1337.483871,259.3200407,28.28383459,1504.371906,-2184,-1451.235821,-1268.828678,454.0214968,-1776.779503,143.1289253,62.9367887,68.8,59.50873647,67.13394731,-0.092016366,0,0.037140012,0.140723488
301,33,0.9,2,37.15846995,1454,-7792,1326,211,31,1441,-2212,-1414,-1066,613,-1720,-374,62.83900833,68.8,59.54381287,67.23811355,-0.097780369,0,0.035076402,0.104166241
301,33,0.9,2,37.70491803,1219.182871,-7906.645208,1285.321108,172.0393406,-27,1404.840251,-2128.110599,-1348.752542,-629.5196931,770.0129962,-1676.720497,-880.9947224,62.78,68.8,59.5853491,67.33017329,-0.059008333,0,0.041536231,0.092059741
301,33,0.9,2,38.25136612,870,-8022,1218,145,-85,1363,-1990,-1254,-290,916,-1653,-1365,62.78,68.8,59.66706983,67.43913849,0,0,0.081720736,0.108965198
301,33,0.9,2,38.79781421,625.7489696,-8023.14926,1115.531889,130.1482672,-52.85185185,1225.551425,-1875.840916,-1050.354704,-273.6516291,1029.801457,-1654.114286,-1789.963441,62.76179524,68.81120293,59.77247987,67.55479831,-0.018204763,0.011202931,0.105410038,0.115659823
301,33,0.9,2,39.3442623,411.7633737,-8023.796852,995.6548333,119.2408003,6.851851852,1010.763387,-1778,-824,-268,1142,-1657,-2181,62.66071647,68.87340525,59.86209704,67.66793139,-0.101078771,0.06220232,0.08961717,0.113133075
301,33,0.9,2,39.89071038,320,-8024,938,115,39,831,-1720.758081,-653.4927536,-415,1282.17307,-1669.117598,-2547.253231,62.65,68.88,59.90925687,67.7782109,-0.010716467,0.006594749,0.047159825,0.110279516
301,33,0.9,2,40.43715847,678,-7932,1106,115,25,728,-1660,-564,-562,1428,-1688,-2891,62.64951906,68.88,59.94382054,67.86552743,-0.000480936,0,0.03456367,0.087316526
301,33,0.9,2,40.98360656,727.6446462,-7966.739233,1300.368932,72.80498282,-31.67464115,656.6184748,-1500.290404,-660,-356,1564.539829,-1704.545039,-3223.811987,62.60986004,68.88,59.98783788,67.90169682,-0.039659023,0,0.044017341,0.036169391
301,33,0.9,2,41.53005464,744,-8014,1414,20,-78,582,-1382,-756,-150,1693,-1726,-3524,62.56466001,68.8925,59.990625,67.97692435,-0.045200033,0.0125,0.002787122,0.07522753
301,33,0.9,2,42.07650273,610.2222222,-8038.611735,1325.851852,4.153239796,-66.85185185,462.4757182,-1609.33945,-620,-265.4605263,1809.86833,-1778.723077,-3774.298815,62.52756439,68.9565625,59.94257813,68.15049617,-0.037095614,0.0640625,-0.048046875,0.173571818
301,33,0.9,2,42.62295082,361.7777778,-8058.083645,1162.148148,-6.213566227,-46.14814815,313.3291454,-1972,-484,-420,1917,-1818,-3993,62.48892448,68.92663923,59.94,68.20847882,-0.038639915,-0.029923268,-0.002578125,0.05798265
301,33,0.9,2,43.16939891,228,-8066,1074,-19,-35,168,-2216.384688,-609.3241895,-494.5394737,2010.720286,-1799,-4193.851355,62.45,68.88,59.94,68.25,-0.038924478,-0.046639232,0,0.041521181
301,33,0.9,2,43.71584699,238.625,-8038.5,1127.75,-37.8897752,-44.21875,39.18342549,-2472,-864,-530,2104,-1780,-4361,62.40361697,68.88,59.94,68.34579338,-0.04638303,0,0,0.095793377
301,33,0.9,2,44.26229508,262,-7978,1246,-60.74329224,-64.5,-85.40367311,-2812,-1228,-442,2212,-1800,-4477,62.39,68.8675,59.94,68.42717391,-0.01361697,-0.0125,0,0.081380536
301,33,0.9,2,44.80874317,285.375,-7917.5,1364.25,-86.72516316,-84.78125,-209.7889352,-3246.414696,-1581.415553,-315.6679115,2287.005955,-1798.455882,-4494.255513,62.39,68.8034375,59.94,68.47798913,0,-0.0640625,0,0.050815217
301,33,0.9,2,45.35519126,296,-7890,1418,-115,-94,-338,-3708,-1966,-210,2330,-1794,-4500,62.36566018,68.8,59.9603216,68.48,-0.024339821,-0.0034375,0.020321596,0.00201087
301,33,0.9,2,45.90163934,-60,-8166,1318,-149,-40,-473,-4141.103085,-2434.43847,-157.6883117,2342.214815,-1714.880325,-4487.827692,62.31630209,68.80079788,60.00352941,68.48053735,-0.049358094,0.000797883,0.043207816,0.00053735
301,33,0.9,2,46.44808743,655,-8113,1316.444444,-160.6632653,-20.05244755,-596.429803,-4554,-2988,-134,2347,-1596,-4457,62.28407098,68.8571382,60.03882353,68.52531651,-0.032231105,0.056340322,0.035294118,0.044779157
301,33,0.9,2,46.99453552,1370,-8060,1316,-173,-12,-663,-5022.682219,-3713.620511,-207.7590988,2337.77809,-1503.359049,-4352.482523,62.23449285,68.8722877,60.07403987,68.57871983,-0.04957813,0.0151495,0.035216341,0.053403319
301,33,0.9,2,47.54098361,1322.945603,-8118,1387,-226.3950298,-76.5,-644.5,-5294,-4434,-346,2319,-1446,-4175,62.14990381,68.81646251,60.10919189,68.62558919,-0.084589037,-0.055825198,0.035152025,0.046869367
301,33,0.9,2,48.08743169,1198,-8176,1458,-296,-141,-626,-5282,-4946,-502,2292,-1437,-3934,62.09642015,68.76257913,60.14600078,68.67466771,-0.053483661,-0.053883373,0.036808884,0.049078512
301,33,0.9,2,48.63387978,754,-7988,1184,-343,-121,-718,-5725.346624,-5272.414176,-701.4382022,2207.089362,-1406.923763,-3663.573004,62.05583578,68.71668267,60.18375588,68.725097,-0.040584373,-0.045896461,0.037755102,0.050429297
301,33,0.9,2,49.18032787,638.6476278,-8069,1031.551484,-346.5364921,-123.1428571,-817.3291281,-6412,-5626,-822,2066,-1360,-3350,62.01495251,68.69072693,60.22148719,68.77891246,-0.040883265,-0.025955748,0.03773131,0.053815453
301,33,0.9,2,49.72677596,596,-8150,962,-349,-126,-917,-6850,-6312,-796,1852,-1302,-2940,61.97547327,68.67069573,60.25705824,68.81474962,-0.039479241,-0.020031196,0.035571053,0.035837164
301,33,0.9,2,50.27322404,685.5482546,-8098.191781,1009,-355.3201302,-127.3571429,-1016.490677,-6900.494902,-6760.092817,-695.4767442,1664.783646,-1244.329331,-2545.660292,61.93743251,68.64630592,60.28745369,68.83627193,-0.038040767,-0.024389814,0.030395444,0.021522314
301,33,0.9,2,50.81967213,876,-8026,1056,-362,-128,-1102,-6940,-6994,-614,1480,-1167,-2171,61.8943445,68.60576306,60.32048452,68.85573569,-0.043088006,-0.040542851,0.03303083,0.019463753
301,33,0.9,2,51.36612022,1188,-7994,962,-366,-126,-1158,-7093.936813,-7017.83978,-639,1275.627641,-1007.064242,-1816.244744,61.87,68.55507418,60.36555705,68.88383792,-0.024344499,-0.050688888,0.04507253,0.028102236
301,33,0.9,2,51.91256831,1569.137323,-7952.155844,891.5124805,-373.4926108,-140.5813953,-1161.831924,-7214,-7042,-664,1067,-763,-1498,61.87,68.50283447,60.44753155,68.94503802,0,-0.052239702,0.081974499,0.061200094
301,33,0.9,3,52.45901639,1850,-7922,856,-382,-159,-1163,-7200.004975,-7399.330814,-411.6365968,861.6896781,-372.9738018,-1236.137683,61.87,68.45935429,60.53386983,68.96,0,-0.043480184,0.086338281,0.014961983
301,33,0.9,3,53.00546448,1952.904703,-7913.428571,898.488806,-387.6140494,-164.0283607,-1150.860714,-7156,-7910,-42,663,46,-1001,61.87,68.41660726,60.60697762,68.96,0,-0.042747028,0.073107791,0
301,33,0.9,3,53.55191257,1996,-7910,974,-395,-169,-1130,-6740,-8216,154,480,330,-780,61.87,68.37626204,60.61,68.96,0,-0.040345225,0.003022382,0
301,33,0.9,3,54.09836066,1850,-7999,1065.511194,-428.1790541,-186.3902439,-1107.139286,-8116.666667,-14808.41157,3216.703291,761.5555556,205.5555556,379.6791286,61.87,68.34352975,60.61205761,68.96,0,-0.032732286,0.002057613,0
301,33,0.9,3,54.64480874,1704,-8088,1124,-456,-200,-1093,-10673.33333,-26516.20579,8565.240535,1284.444444,-25.55555556,2179.506231,61.87,68.32362154,60.65444444,68.96,0,-0.019908212,0.042386831,0
301,33,0.9,3,55.19125683,1962,-7926,880,-456,-185,-1101,-12050,-32768,11412,1566,-150,3114,61.8590625,68.32,60.67,68.95125,-0.0109375,-0.003621539,0.015555556,-0.00875
301,33,0.9,3,55.73770492,2574.514958,-7918.291976,713.3458647,-451.5,-182.75,-1034.330861,-7913.058249,-26058.36833,7017.554327,437.4893571,785,2258.793305,61.80300781,68.32,60.67,68.89109375,-0.056054688,0,0,-0.06015625
301,33,0.9,3,56.28415301,3020,-7916,632,-447,-182,-911,-2482,-16994,1536,-1027,1720,1210,61.8,68.285,60.67,68.83,-0.003007812,-0.035,0,-0.06109375
301,33,0.9,3,56.83060109,3004,-7970,728,-453,-218,-777,-395.0135969,-13188.85383,118.6205496,-1648.489357,1658.296117,870.2066946,61.8,68.25,60.67,68.8,0,-0.035,0,-0.03
301,33,0.9,3,57.37704918,3052.9943,-8047.415254,824.6474696,-453.4796078,-194.5,-641.0879827,1066,-10280,-1252,-1934,1492,724,61.8,68.25,60.67,68.8,0,0,0,0
301,33,0.9,3,57.92349727,3192,-8096,924,-454,-171,-480,2182,-7640,-4686,-1579,862,1285,61.8,68.25,60.67,68.78819459,0,0,0,-0.011805414
301,33,0.9,3,58.46994536,3864,-7908,1030,-482,-204,-234,-1744,-7050,-4200,-1069,-499,2154,61.8,68.25,60.67,68.73038876,0,0,0,-0.057805821
301,33,0.9,3,59.01639344,3752,-7796,802,-510,-204,-108,-4568,-5788,-1646,-821,-72,2266,61.8,68.25,60.64264401,68.68264012,0,0,-0.027355994,-0.047748646
301,33,0.9,3,59.56284153,3096,-8410,772,-518,-150,113,-5182,-6248,-370,-751,395,1800,61.79932617,68.25,60.61,68.63513186,-0.000673828,0,-0.032644006,-0.047508255
301,33,0.9,3,60.10928962,3213.185185,-8537.059782,568.0134081,-585.6502654,-253.8310894,355.2816228,-4598,-8310,2636,-1021,451,1395,61.75391602,68.25,60.61,68.58516117,-0.045410156,0,0,-0.049970697
301,33,0.9,3,60.6557377,3430.814815,-8599.201775,238.5622596,-697.8806883,-470.995512,609.6987185,-4246.217914,-8151.25,1987.5625,-1005.039126,422.8516768,1267.726236,61.74,68.25,60.61,68.52962891,-0.013916016,0,0,-0.055532259
301,33,0.9,3,61.20218579,3548,-8720,66,-757,-660,865,-3947.304813,-7802,561,-964.3543347,360.1878049,1193.006024,61.74,68.25,60.61,68.48060547,0,0,0,-0.049023437
301,33,0.9,3,61.74863388,2238.740741,-9806.807858,360.5185185,-679.2368421,-796.3748583,1174.033902,-3739.739305,-7452.75,-865.5625,-909.7423765,295.6800305,1130.532801,61.74,68.25,60.61,68.48,0,0,0,-0.000605469
301,33,0.9,3,62.29508197,-192.7407407,-11624.73726,907.4814815,-511.4736842,-915.7985403,1483.961395,-3662,-7294,-1514,-852,262,1040,61.74,68.25,60.61,68.48,0,0,0,0
301,33,0.9,3,62.84153005,-1502,-12584,1202,-352,-967,1625,-3928.25,-7295.191427,-1339.9375,-790.6930718,256.9388674,894.0824966,61.74,68.25,60.61,68.48,0,0,0,0
301,33,0.9,3,63.38797814,-974,-12430,-444,-237,-890,1395,-4514,-7299.010471,-957,-716.9735274,254.5459229,710.2181025,61.74,68.26460411,60.61,68.46330959,0,0.014604112,0,-0.016690413
301,33,0.9,3,63.93442623,-1208.94382,-11854.99455,8.667065868,0.556122449,-1061.025391,1312.287595,-5099.75,-7305.82428,-574.0625,-629.0172193,251.880017,515.2446571,61.74,68.31732139,60.61,68.40306127,0,0.052717281,0,-0.060248321
301,33,0.9,3,64.48087432,-1654,-11392,650,167,-1305,1226,-5366,-7316,-400,-525,246,336,61.74,68.32,60.61,68.4,0,0.002678608,0,-0.003061266
301,33,0.9,3,65.0273224,-2119.34099,-12150,920.6087962,139.5,-1415.301519,925.8873038,-4872.209677,-7518.637622,-778,-382.3980654,189.2074226,154.7273672,61.74,68.32,60.61,68.4,0,0,0,0
301,33,0.9,3,65.57377049,-2754,-12908,1226,112,-1530,490,-4118,-7732,-1156,-202,87,30,61.74,68.32,60.61,68.4,0,0,0,0
301,33,0.9,3,66.12021858,-3844,-11670,2026,112,-1751,41,-3658,-7752,-610,15,-37,-2,61.74,68.30185185,60.61,68.42074074,0,-0.018148148,0,0.020740741
301,33,0.9,3,66.66666667,-1270,-11504,604,-311,-1712,-515,-4154,-7642,-279.822016,119.8522567,-94.31811698,-84.37346093,61.74,68.25240055,60.61,68.47725652,0,-0.049451303,0,0.056515775
301,33,0.9,3,67.21311475,1638.890801,-11300.95047,285.8882979,-707.3896648,-1473.24587,-1228.121533,-4650,-7532,-100,200,-119,-207,61.74,68.25,60.61,68.48,0,-0.002400549,0,0.002743484
301,33,0.9,3,67.75956284,3326,-11180,172,-923,-1008,-2087,-4541.030506,-7572,-49.61206897,283.5043424,-116,-380.1138254,61.74,68.25,60.61515625,68.4765625,0,0,0.00515625,-0.0034375
301,33,0.9,3,68.30601093,3211.719665,-14371,817.8098637,-786.5,27.84162627,-3308.556742,-4336,-7612,-30,362,-113,-538,61.74,68.25,60.71125,68.4125,0,0,0.09609375,-0.0640625
301,33,0.9,3,68.85245902,3040,-17562,1846,-650,945,-4368,-4102,-7560,-164,435,-150,-610,61.72285365,68.25,60.71285365,68.4,-0.017146346,0,0.001603654,-0.0125
301,33,0.9,3,69.3989071,2915.280335,-16561.4373,2741.190136,-707.9579016,1178.525329,-4877.718595,-4088,-7544,-204,550,-219,-706,61.68059841,68.25,60.67059841,68.4,-0.042255241,0,-0.042255241,0
301,33,0.9,3,69.94535519,2848,-14862,3254,-813,1272,-5194,-4126,-7584,-160,613,-236,-796,61.68,68.25,60.67,68.4,-0.000598412,0,-0.000598412,0
301,33,0.9,3,70.49180328,3345.507474,-13063.5627,1943,-948.0420984,965.2643878,-5351.986559,-4380,-7566,272,684,-259,-987,61.68,68.24693873,60.67,68.39841389,0,-0.003061266,0,-0.001586109
301,33,0.9,3,71.03825137,4178,-11964,632,-1036,366,-5493,-4330,-7456,634,696,-261,-1102,61.68,68.18669041,60.67,68.35492111,0,-0.060248321,0,-0.043492779
301,33,0.9,3,71.58469945,4852,-12132,766,-923,-397,-5723,-4251.42954,-7403.379622,649.6853832,682.5185185,-250.3703704,-1281.092494,61.68,68.17,60.67,68.28888889,0,-0.016690413,0,-0.066032223
301,33,0.9,3,72.13114754,4846.792899,-12090.24543,1452.590542,-893.7880435,-1127.424817,-5668.947563,-4141.5193,-7366.134255,657.7315805,657.4814815,-230.6296296,-1488.754066,61.68,68.17,60.67,68.25040488,0,0,0,-0.038484014
301,33,0.9,3,72.67759563,4832,-11984,2036,-883,-1780,-5560,-3994,-7352,660,644,-220,-1635,61.63847168,68.12253906,60.64223042,68.25,-0.04152832,-0.047460938,-0.027769581,-0.000404875
301,33,0.9,3,73.22404372,4760,-11666,1924,-920,-2285,-5408,-3655.22359,-7404.078133,603.4814815,655.6840731,-230.3703704,-1706.960217,61.61,68.09,60.6001801,68.24603712,-0.02847168,-0.032539062,-0.042050314,-0.003962877
301,33,0.9,3,73.7704918,4386.345973,-11223.64476,1397.21062,-911.4638554,-2768.819364,-5250.554118,-3202.500684,-7509.045155,498.5185185,684.0348129,-249.6296296,-1759.447183,61.61,68.09,60.57020325,68.19737639,0,0,-0.029976854,-0.04866073
301,33,0.9,3,74.31693989,3820,-10654,746,-894,-3034,-5081,-2976,-7590,442,719,-260,-1804,61.62623535,68.10334476,60.5085844,68.14552107,0.016235352,0.013344759,-0.061618856,-0.051855318
301,33,0.9,3,74.86338798,3290.823971,-9868.333672,360.4959238,-865.5588146,-2997.8931,-4898.835676,-3011,-7631.828767,469.4532677,773.7810507,-248.5,-1840.853305,61.67921387,68.16483889,60.42118068,68.09488505,0.052978516,0.061494135,-0.087403713,-0.050636023
301,33,0.9,3,75.40983607,2748,-8946,84,-837,-2903,-4675,-3046,-7652,544,826,-237,-1879,61.64191533,68.20721136,60.42,68.05090593,-0.037298541,0.04237247,-0.001180682,-0.043979119
301,33,0.9,3,75.95628415,2226,-7988,-74,-823,-2580,-4326,-3044,-7594,836,848,-262,-1938,61.6121244,68.26758466,60.41742188,67.99535377,-0.029790928,0.060373291,-0.002578125,-0.055552163
301,33,0.9,3,76.50273224,1701.410893,-7504.075022,-324.2997454,-833,-2100.673166,-4011.82783,-2837.422699,-7538.446309,1193.211724,827.7368421,-250.429878,-1971.489042,61.65997596,68.41637586,60.369375,67.89339588,0.047851563,0.148791209,-0.048046875,-0.101957891
301,33,0.9,3,77.04918033,1302,-7114,-624,-843,-1536,-3741,-2598,-7508,1406,788,-229,-1999,61.70348055,68.59034574,60.36,67.82602746,0.043504591,0.17396988,-0.009375,-0.067368417
301,33,0.9,4,77.59562842,1076.210526,-6651.351519,-972.6288899,-820.4929577,-918.48211,-3518.049293,-2558.573559,-7560.78481,1368,735.1119079,-206.90004,-2035.432773,61.74,68.72,60.36,67.78,0.036519447,0.129654255,0,-0.046027463
301,33,0.9,4,78.1420765,972,-6234,-1254,-775,-330,-3349,-2516,-7628,1330,677,-180,-2057,61.77259165,68.62672154,60.33374524,67.73494031,0.032591655,-0.093278464,-0.026254764,-0.045059689
301,33,0.9,4,78.68852459,1058,-5936,-1368,-711,112,-3250,-2113.105619,-7645.370362,1395,623.6372268,-137.0322867,-2036.683781,61.80796155,68.56666449,60.29280692,67.69154312,0.035369894,-0.060057045,-0.040938315,-0.043397188
301,33,0.9,4,79.23497268,1313.602571,-5620.435199,-1303.875706,-646.1398451,675.319426,-3051.24635,-1554,-7666,1460,588,-107,-1991,61.85310767,68.72497763,60.25490921,67.65102151,0.045146122,0.158313136,-0.037897713,-0.040521614
301,33,0.9,4,79.78142077,1644,-5306,-1168,-581,1241,-2798,-1218,-7780,1446,579,-105,-1902,61.89161243,68.93334067,60.21371591,67.57748073,0.038504756,0.208363044,-0.041193299,-0.073540784
301,33,0.9,4,80.32786885,1901.812825,-5022.178624,-944.8289667,-514.9344262,1745.113545,-2545.908939,-1218,-7820,1486,552,-146,-1792,61.92615353,69.11773174,60.18039703,67.47653808,0.034541104,0.184391068,-0.033318879,-0.100942644
301,33,0.9,4,80.87431694,2162,-4722,-660,-451,2119,-2282,-1196.65728,-7822.3164,1522.323513,527.3402547,-131.5270717,-1713.851236,61.96960328,69.12,60.2155957,67.42825883,0.043449745,0.00226826,0.035198674,-0.048279248
301,33,0.9,4,81.42076503,2466.884107,-4350.053573,-362.035557,-394.3713507,2336.36204,-2023.447377,-1142.252747,-7823.126771,1556.309846,504.1199895,-98.23885794,-1649.643164,62.01124666,69.12659475,60.23659271,67.38685905,0.041643386,0.006594749,0.02099701,-0.041399784
301,33,0.9,4,81.96721311,2770,-3932,-98,-337,2437,-1739,-1069.221841,-7823.873756,1593.641256,479.3397296,-61.33121518,-1587.11351,62.04552209,69.18879707,60.19665785,67.34229826,0.034275426,0.06220232,-0.039934867,-0.044560791
301,33,0.9,4,82.5136612,3005.969128,-3490.267103,54.86080866,-273.6055298,2399.790123,-1393.475395,-992,-7826,1640,450,-36,-1514,62.08203851,69.2,60.15398738,67.27043639,0.036516423,0.011202931,-0.042670466,-0.071861871
301,33,0.9,4,83.06010929,3276,-2998,210,-200,2300,-981,-897.8080155,-7905.824189,1728.191624,411.7136611,-24.70146655,-1422.454018,62.12465484,69.2,60.12040301,67.17679458,0.042616331,0,-0.033584368,-0.093641809
301,33,0.9,4,83.60655738,3760,-2406,484,-101,1930,-451,-792,-7984,1790,366,-15,-1320,62.20520473,69.29492188,60.12,67.11157402,0.080549887,0.094921875,-0.000403012,-0.065220559
301,33,0.9,4,84.15300546,3560.878115,-2043.711401,394,-70.01453488,1546.822862,140.1321899,-696,-7826,1688,313,-3,-1209,62.27390693,69.36,60.11612533,67.09,0.068702204,0.065078125,-0.003874669,-0.02157402
301,33,0.9,4,84.69945355,3206,-1826,304,-53,1214,707,-659.07393,-7930,1790,266.2966908,-7,-1103.264316,62.30903805,69.36,60.07274102,67.09,0.035131115,0,-0.043384312,0
301,33,0.9,4,85.24590164,2860,-1748,324,-43,996,1161,-644,-8034,1892,216,-11,-997,62.35533447,69.36,60.03503237,67.04416705,0.046296421,0,-0.037708651,-0.045832948
301,33,0.9,4,85.79234973,2330,-1780,412,3,711,1745,-740,-7868,1650,147,5,-884,62.39,69.36,60,66.94,0.034665532,0,-0.035032368,-0.104167052
301,33,0.9,4,86.33879781,2257.927323,-1810.967742,531.4769174,79.96546831,567.4581448,2183.182023,-630,-7918,1564,104,27,-800,62.39,69.41047832,59.96470588,66.89694971,0,0.050478323,-0.035294118,-0.043050287
301,33,0.9,4,86.8852459,2220,-1828,626,171,504,2556,-407.2256318,-7976.685433,1434.532037,100.1890244,33.5158371,-685.7886343,62.39,69.44,59.92945888,66.85721017,0,0.029521677,-0.035247003,-0.039739543
301,33,0.9,4,87.43169399,2189.419783,-1494,666.4080882,256.4751628,511.3541568,2892.094647,-252,-8036,1352,99,36,-552,62.39,69.44,59.89437042,66.8127486,0,0,-0.035088457,-0.044461568
301,33,0.9,4,87.97814208,2154,-1160,684,346,529,3196,-398,-8088,1574,105,-1,-402,62.39,69.45828125,59.85249029,66.73619258,0,0.01828125,-0.041880134,-0.07655602
301,33,0.9,4,88.52459016,2025.309354,-1173.968891,616.608,441.2392051,588.5352357,3487.640509,-474.7293458,-8074.37037,1566.592593,93.85746573,3.296296296,-325.0957633,62.39,69.52,59.82,66.64,0,0.06171875,-0.032490288,-0.096192581
301,33,0.9,4,89.07103825,1792.083024,-1212.866674,455.904,539.9012542,712.7856599,3771.721527,-542.2580071,-8040.296296,1548.074074,64.98833479,14.03703704,-267.9493449,62.42206995,69.58171875,59.82,66.59409193,0.032069951,0.06171875,0,-0.045908072
301,33,0.9,4,89.61748634,1530.802016,-1272.18001,264.096,642.8437006,881.9684662,4041.98229,-598.4676935,-7996,1524,25.23031496,28,-222.613652,62.46806978,69.6,59.82,66.55228388,0.045999833,0.01828125,0,-0.041808043
301,33,0.9,4,90.16393443,1317.947339,-1347.395565,103.392,750.9240981,1076.300848,4292.162036,-641.2401146,-7951.703704,1499.925926,-18.57888597,41.96296296,-181.141592,62.51380477,69.6,59.82,66.50771612,0.045734987,0,0,-0.04456777
301,33,0.9,4,90.71038251,1230,-1434,36,865,1276,4516,-668.4569803,-7917.62963,1481.407407,-59.60156022,52.7037037,-135.5860722,62.52,69.6,59.82,66.46571658,0.006195229,0,0,-0.041999538
301,33,0.9,4,91.2568306,1762,-1590,204,993,1520,4700,-678,-7904,1474,-91,57,-78,62.52,69.6,59.82,66.42,0,0,0,-0.045716577
301,33,0.9,4,91.80327869,2221.333354,-1846.488017,312.5486936,1072.103651,1673.939676,4770.300142,-678,-7972,1522,-112,38,-1,62.54445003,69.6,59.78214126,66.31546882,0.024450035,0,-0.037858742,-0.104531181
301,33,0.9,4,92.34972678,2659.438765,-2182.207278,401.4270938,1134.596923,1793.136505,4817.03896,-617.375,-8028.908397,1582.357143,-139.228144,52.5872132,73.89100221,62.6050733,69.60738281,59.76387467,66.27,0.060623265,0.007382812,-0.018266589,-0.045468819
301,33,0.9,4,92.89617486,3186,-2540,518,1206,1841,4834,-484,-8083.251908,1650.761905,-170.7651636,84.98256853,147.7904203,62.74523443,69.67261719,59.80725898,66.27,0.140161134,0.065234375,0.043384312,0
301,33,0.9,4,93.44262295,4011.358466,-2918.938437,778.5521064,1322.744633,1686.98714,4795.082771,-350.625,-8123.969466,1706.785714,-203.1696015,118.1366396,219.2946283,62.84193672,69.68,59.85095176,66.25161544,0.096702289,0.007382812,0.043692775,-0.018384558
301,33,0.9,4,93.98907104,4794,-3310,966,1408,1434,4716,-290,-8140,1730,-233,135,287,62.91,69.68,59.88,66.2,0.068063277,0,0.029048244,-0.051615442
301,33,0.9,4,94.53551913,5311.997596,-3676.364551,916.6666667,1427.370028,1248.321133,4616.714919,-299.3610136,-8136.87793,1720.925781,-261.3912146,137.7390694,354.7356157,62.95296554,69.71805474,59.88,66.15305373,0.042965539,0.038054741,0,-0.046946266
301,33,0.9,4,95.08196721,5802.370256,-4031.62464,793.3333333,1442.824746,1078.336814,4483.706968,-326.6186174,-8128.054688,1695.28125,-291.4504717,139.9367239,426.4942449,62.99232777,69.77846381,59.88,66.10650259,0.039362236,0.060409073,0,-0.04655114
301,33,0.9,4,95.6284153,6235.437403,-4382.099248,633,1454.53963,910.7797928,4323.253822,-370.534656,-8114.344727,1655.433594,-322.6948703,141.6682219,501.1177957,63.03448698,69.84403852,59.88,66.06279292,0.042159207,0.06557471,0,-0.043709678
301,33,0.9,4,96.17486339,6581.518461,-4734.107356,472.6666667,1462.690151,732.3828173,4141.633161,-429.870974,-8096.5625,1603.75,-354.6415094,143.0088217,577.4481762,63.10200595,69.81678811,59.88,66.01388962,0.067518972,-0.027250411,0,-0.048903298
301,33,0.9,4,96.72131148,6810.932852,-5093.967947,349.3333333,1467.451783,529.8786367,3945.122661,-503.3894159,-8075.522461,1542.597656,-386.8074882,144.0337816,654.3272944,63.18,69.76,59.88,65.98,0.077994047,-0.056788113,0,-0.033889618
301,33,0.9,4,97.26775956,6894,-5468,300,1469,290,3740,-589.8518263,-8052.039063,1474.34375,-418.7099057,144.8183601,730.5970585,63.22649006,69.76,59.88,65.98,0.046490057,0,0,0
301,33,0.9,4,97.81420765,6874.997229,-5897.323672,330.368,1432.835904,-90.99250034,3508.810749,-688.0200497,-8026.926758,1401.355469,-449.8658608,145.4378155,805.0993765,63.2648153,69.76,59.88,65.98,0.038325239,0,0,0
301,33,0.9,4,98.36065574,6822.831688,-6377.782083,402.784,1340.027711,-619.1915629,3239.315666,-796.6559307,-8001,1326,-479.7924528,145.9674061,876.6761566,63.29902584,69.76,59.88,65.98,0.034210544,0,0,0
301,33,0.9,4,98.90710383,6744.767532,-6847.778657,489.216,1214.101566,-1161.394375,2945.615208,-914.5213139,-7975.073242,1250.644531,-508.0067807,146.4823902,944.1693067,63.34503781,69.79321189,59.88,65.95416853,0.046011972,0.033211887,0,-0.025831468
301,33,0.9,4,99.45355191,6648.068918,-7245.716821,561.632,1078.583614,-1584.398125,2641.809833,-1040.378044,-7949.960938,1177.65625,-534.0259434,147.0580262,1006.420735,63.38,69.85,59.88,65.91,0.034962188,0.056788113,0,-0.044168532
301,33,0.9,4,100,6540,-7510,592,957,-1755,2342,-1172.987965,-7926.477539,1109.402344,-557.3670401,147.7695725,1062.27235,63.38,69.85,59.92101563,65.95785156,0,0,0.041015625,0.047851563
301,33,0.9,1,0,6352.443515,-7682.066426,578.8959876,853.3714106,-1740.108039,2021.55466,-1311.112922,-7905.4375,1048.25,-577.5471698,148.6922874,1110.566059,63.38,69.85,59.93288371,65.9690625,0,0,0.011868084,0.011210937
301,33,0.9,1,0.591715976,6040.001793,-7842.163933,541.7505289,753.8367893,-1699.959705,1660.810626,-1453.51476,-7887.655273,996.5664062,-594.0834316,149.9014293,1150.14377,63.38,69.85,59.88718966,65.91300781,0,0,-0.045694053,-0.056054687
301,33,0.9,1,1.183431953,5644.018377,-7986.910347,483.8134918,655.0996649,-1641.346322,1281.320153,-1598.955322,-7873.945313,956.71875,-606.4929245,151.4722564,1179.847392,63.38,69.88336077,59.85494104,65.91,0,0.033360768,-0.032248615,-0.003007813
301,33,0.9,1,1.775147929,5205.836814,-8112.923496,408.3347438,553.8635661,-1571.059214,904.6354905,-1746.196454,-7865.12207,931.0742187,-614.2927476,153.4800272,1198.518833,63.38,69.93,59.8230108,65.91,0,0.046639232,-0.031930242,0
301,33,0.9,1,2.366863905,4766.80065,-8216.821208,318.5641529,446.8320215,-1495.889704,552.3088921,-1894,-7862,922,-617,156,1205,63.42785156,69.93,59.79405441,65.91,0.047851563,0,-0.028956384,0
301,33,0.9,1,2.958579882,4368.253429,-8295.221311,217.7515868,330.7085598,-1422.629116,245.8926094,-2103.534102,-7863.955153,936.976,-610.968,163.2395857,1158.881623,63.44325174,69.93,59.77198024,65.91,0.015400179,0,-0.022074175,0
301,33,0.9,1,3.550295858,4051.538697,-8344.741632,109.1469133,202.1967098,-1358.068773,6.938894683,-2389.635865,-7869.465459,972.688,-596.584,177.1173652,1043.364869,63.39440469,69.93,59.76069663,65.91,-0.048847048,0,-0.011283614,0
301,33,0.9,1,4.142011834,3858,-8362,-4,58,-1309,-143,-2681.570577,-7877.998188,1015.312,-579.416,194.2753519,892.7073028,63.34886679,69.93,59.76,65.91,-0.045537898,0,-0.000696626,0
301,33,0.9,1,4.733727811,3760.820166,-8136.595891,-201.5561825,-172.6168726,-1277.365821,-219.6371451,-2908.603526,-7889.020612,1051.024,-565.032,211.3555591,741.1664914,63.30614742,69.92920212,59.76,65.91,-0.042719372,-0.000797883,0,0
301,33,0.9,1,5.325443787,3689.086664,-7690.302893,-448.6669801,-440.475103,-1250.437785,-274.3315786,-3000,-7902,1066,-559,225,623,63.27133535,69.8728618,59.76,65.91,-0.034812078,-0.056340322,0,0
301,33,0.9,1,5.917159763,3618,-7368,-570,-569,-1213,-339,-2968.160027,-7925.855472,1064.710938,-571.7617187,234.6317736,529.5555156,63.23130674,69.85,59.76,65.91,-0.040028608,-0.022861795,0,0
301,33,0.9,1,6.50887574,3530.766291,-7228.358428,-551.7944316,-545.4960938,-1129.291954,-440.52221,-2878.584378,-7969.387605,1061.3125,-605.40625,242.4284517,432.6198393,63.18411326,69.85,59.76,65.91,-0.047193474,0,0,0
301,33,0.9,1,7.100591716,3431.904039,-7101.358303,-501.5094797,-483.53125,-987.3532756,-574.9561045,-2740.189458,-8031.885858,1056.507813,-652.9726562,249.1637574,337.1092076,63.19891009,69.85,59.76,65.90072822,0.014796831,0,0,-0.009271781
301,33,0.9,1,7.692307692,3328.582332,-6988.841982,-425.6427744,-395.9257813,-807.6682881,-727.9855255,-2561.891673,-8112.639691,1051,-707.5,255.6114135,247.9398572,63.25621326,69.84865882,59.76,65.86818237,0.057303163,-0.001341176,0,-0.032545844
301,33,0.9,1,8.284023669,3227.970257,-6892.651825,-330.6919458,-295.5,-610.7213139,-885.2943151,-2352.60743,-8210.938563,1045.492188,-762.0273438,262.5451429,170.0280246,63.3504551,69.74465882,59.76,65.8369722,0.094241841,-0.104,0,-0.031210173
301,33,0.9,1,8.875739645,3137.236899,-6814.630189,-223.1546239,-195.0742187,-416.9966754,-1032.566315,-2121.253133,-8326.071932,1040.6875,-809.59375,270.7386685,108.2899464,63.36433905,69.65382683,59.75756908,65.83324123,0.013883956,-0.090831997,-0.002430921,-0.003730974
301,33,0.9,1,9.467455621,3063.551346,-6756.619434,-109.528439,-107.46875,-246.9786952,-1155.485368,-1876.745187,-8457.329258,1037.289063,-843.2382813,280.9657132,67.64185938,63.26790764,69.60380444,59.73676601,65.86097866,-0.096431413,-0.05002239,-0.020803072,0.027737429
301,33,0.9,1,10.0591716,3014.082684,-6720.461918,3.688979034,-45.50390625,-121.1516959,-1239.735316,-1628,-8604,1036,-856,294,53,63.2265291,69.6,59.71095417,65.89539444,-0.041378541,-0.003804437,-0.025811837,0.034415783
301,33,0.9,1,10.65088757,2996,-6708,110,-22,-60,-1271,-1323.247153,-8939.693587,1053.885863,-853.59375,322.3100775,61.26324188,63.19928481,69.6,59.7,65.91,-0.027244293,0,-0.01095417,0.01460556
301,33,0.9,1,11.24260355,2997.755237,-6771.813411,231.3946657,-28.48104956,-39.13861211,-1251.848818,-923.0420361,-9568.970679,1103.5551,-847.25,372.5640424,85.28647216,63.18294597,69.6,59.7,65.91,-0.016338837,0,0,0
301,33,0.9,1,11.83431953,3003.619499,-6936.38484,382.4495073,-45.19533528,-20.71405876,-1198.155922,-454.7897615,-10387.54758,1179.025188,-838.28125,436.83494,123.9199478,63.18,69.6,59.7,65.91,-0.002945971,0,0,0
301,33,0.9,1,12.4260355,3014.490608,-7161.411079,545.5466291,-68.04956268,-5.007945392,-1115.562293,54.10455695,-11291.1406,1274.313601,-828,507.1958155,176.0139257,63.18,69.6,59.7,65.91,0,0,0,0
301,33,0.9,1,13.01775148,3031.266389,-7406.588921,703.0681351,-92.95043732,7.698122588,-1009.708908,576.2358058,-12175.46605,1383.437814,-817.71875,575.719714,240.418663,63.15080933,69.56663923,59.72502058,65.91,-0.029190672,-0.033360768,0.025020576,0
301,33,0.9,1,13.60946746,3054.844665,-7631.61516,837.3961295,-115.8046647,17.12253976,-886.2367446,1084.198872,-12936.24023,1500.415301,-808.75,634.4796808,315.9844165,63.11,69.52,59.76,65.91,-0.040809328,-0.046639232,0.034979424,0
301,33,0.9,1,14.20118343,3086.123261,-7796.186589,930.9127164,-132.5189504,22.9837007,-750.7867827,1550.588641,-13469.17944,1619.263538,-802.40625,675.5487611,401.5614432,63.11,69.52,59.75151512,65.92623535,0,0,-0.008484884,0.016235352
301,33,0.9,1,14.79289941,3126,-7860,966,-139,25,-609,1948,-13670,1734,-800,691,496,63.10893098,69.51675877,59.73083412,65.95785156,-0.001069025,-0.003241228,-0.020680999,0.031616211
301,33,0.9,1,15.38461538,4220.118771,-7695,425,-86.53244592,6.26128266,-403.9789061,2343.757237,-13638.2686,1890.527288,-886.3854441,622.037037,643.0105096,63.0976964,69.48902134,59.70511748,65.97921387,-0.011234577,-0.027737429,-0.025716636,0.021362305
301,33,0.9,1,15.97633136,5292,-7530,-116,-1,-24,-167,2708.100841,-13544.75943,2065.263644,-1084.548666,493.962963,878.3636363,63.07616984,69.45460556,59.67401021,65.94808467,-0.02152656,-0.034415783,-0.031107272,-0.031129194
301,33,0.9,1,16.56804734,4596,-7584,244,63,-46,30,2868,-13392,2148,-1303,425,1189,63.04607893,69.44,59.63647059,65.91,-0.030090906,-0.01460556,-0.037539621,-0.038084673
301,33,0.9,1,17.15976331,4250.229525,-7583.796565,214.4444444,119.9987961,-10.82988405,103.4558169,386.9275725,-12217.61449,1206.339334,-1588.024709,475,1673.208757,62.9595401,69.44,59.60117647,65.91,-0.086538837,0,-0.035294118,0
301,33,0.9,1,17.75147929,4002.670318,-7583.148685,159.5555556,174.291649,55.00689858,149.3852067,-3206,-11134,160,-1774,525,2391,62.88940335,69.44,59.56334215,65.91,-0.070136749,0,-0.037834317,0
301,33,0.9,1,18.34319527,3908,-7582,130,233,92,216,-5515.927573,-13567.89762,-9.339333933,-1765.515152,-77,3725.445333,62.84822228,69.44,59.52340729,65.91,-0.041181072,0,-0.039934867,0
301,33,0.9,1,18.93491124,4003,-7480.645531,325.8764413,314.9217849,94.18361955,376.534921,-6714,-16428,-74,-1746,-679,4885,62.81370388,69.44,59.52,65.91,-0.034518396,0,-0.003407287,0
301,33,0.9,1,19.52662722,4098,-7380,700,374,95,547,-6285,-17149.10238,2323,-1688.484848,-635.3519091,5283.327124,62.77577019,69.43937762,59.51942308,65.91,-0.037933685,-0.000622384,-0.000576918,0
301,33,0.9,1,20.1183432,3916,-7650,1146,385,91,637,-5856,-17444,4720,-1642,-500,5451,62.73072063,69.38968885,59.47782473,65.91,-0.045049568,-0.049688763,-0.041598352,0
301,33,0.9,1,20.71005917,3990,-7610,1178,349,111,788,-6154,-13776,4092,-1935,642,5220,62.69088935,69.33599969,59.45196597,65.91,-0.039831277,-0.053689162,-0.025858761,0
301,33,0.9,1,21.30177515,4052,-7524,1108,330,103,896,-5924,-12006,1574,-2026,1292,5251,62.65722655,69.29097474,59.43738052,65.91,-0.033662802,-0.045024947,-0.014585451,0
301,33,0.9,1,21.89349112,4035.660714,-7542.044776,1211.506276,296.4631705,90.853994,1047.569009,-6126,-11628.04785,687.3275129,-1980.140564,2049.642463,5412.970824,62.63647094,69.25622409,59.4249246,65.91,-0.020755606,-0.034750656,-0.012455922,0
301,33,0.9,1,22.4852071,3992,-7576,1374,249,73,1204,-6328,-11494,334,-1892,2812,5551,62.62058801,69.22194619,59.41478146,65.91,-0.01588293,-0.034277894,-0.010143133,0
301,33,0.9,1,23.07692308,3742.310969,-7613.122682,1509.493724,171.5678523,36.17556122,1332.406208,-5118,-11666,1092,-1785,3477,5353,62.60786647,69.18811785,59.40713438,65.91,-0.012721543,-0.033828347,-0.007647083,0
301,33,0.9,1,23.66863905,3380,-7658,1586,98,-3,1442,-4172,-11460,1536,-1798,3740,5142,62.59731661,69.15564678,59.40216661,65.91,-0.010549856,-0.032471064,-0.004967773,0
301,33,0.9,1,24.26035503,3118,-7712,1090,64,-24,1526,-3090,-10654,1320,-1835,3762,4816,62.58794874,69.12544074,59.40006141,65.91,-0.009367868,-0.030206043,-0.002105203,0
301,33,0.9,1,24.85207101,2974,-7734,824,78,-8,1583,-2660,-9954,578,-1856,3518,4631,62.57877316,69.09840746,59.4,65.92059569,-0.009175578,-0.027033285,-6.14E-05,0.01059569
301,33,0.9,1,25.44378698,2876,-7698,710,121,5,1650,-1910,-9118,-650,-1804,2851,4357,62.56880018,69.07545467,59.4,65.96003492,-0.009972989,-0.022952789,0,0.039439229
301,33,0.9,1,26.03550296,2856,-7650,860,135,16,1683,-1436,-8340,-1222,-1729,2212,4137,62.55704008,69.05749011,59.4,66.0223471,-0.011760098,-0.017964556,0,0.062312183
301,33,0.9,2,26.62721893,2936,-7590,1052,130,22,1721,-616,-7210,-1562,-1578,1357,3778,62.54250317,69.04542153,59.4,66.10085491,-0.014536907,-0.012068585,0,0.078507803
301,33,0.9,2,27.21893491,2936,-7660,996,118,10,1781,-150,-6464,-1508,-1482,822,3578,62.52419976,69.04015665,59.4,66.188881,-0.018303414,-0.005264877,0,0.088026091
301,33,0.9,2,27.81065089,2588,-7780,1044,115,-31,1875,-82,-5526,-1314,-1411,65,3325,62.49489788,69.05182514,59.4,66.27974804,-0.029301877,0.011668489,0,0.090867046
301,33,0.9,2,28.40236686,2123.685175,-7802.063894,905.2977099,129.8206107,-27.54508197,1867.426829,-619.3695697,-5029.698087,-1397,-1357.650621,-570.8015161,3054.083777,62.4502572,69.08543952,59.40036117,66.36750788,-0.044640685,0.033614381,0.000361166,0.087759842
301,33,0.9,2,28.99408284,1742,-7814,724,159,-19,1848,-1392,-4638,-1480,-1301,-1100,2769,62.40641733,69.11504689,59.4112745,66.46828271,-0.043839866,0.029607368,0.010913335,0.100774826
301,33,0.9,2,29.58579882,1590,-7824,662,197,4,1788,-1776,-4238,-1414,-1213,-1487,2465,62.37777087,69.11531854,59.4320886,66.5823601,-0.028646461,0.000271655,0.020814103,0.114077393
301,33,0.9,2,30.17751479,1612,-7780,804,235,17,1704,-2006,-3410,-982,-1054,-1915,1959,62.35859994,69.08702626,59.45560565,66.69779946,-0.019170926,-0.028292286,0.023517043,0.115439361
301,33,0.9,2,30.76923077,1605.024764,-7791.875,987.2288934,223.7464301,13.26771255,1642.321363,-2194.654118,-2989.425303,-822.0353979,-937.9726254,-2020.562791,1554.528663,62.34071459,69.05384897,59.47764851,66.80942978,-0.017885352,-0.033177285,0.022042864,0.11163032
301,33,0.9,2,31.36094675,1584.066038,-7818,1197.259016,196.0738137,2.880566802,1589.426737,-2380.385882,-2659.576583,-719.2108538,-841.1099232,-2099.55814,1200.958082,62.31709505,69.04,59.50114701,66.92500682,-0.023619546,-0.013848972,0.023498503,0.115577032
301,33,0.9,2,31.95266272,1549.074292,-7844.125,1370.159631,161.1142904,-12.94686235,1542.318742,-2540.790588,-2398.615211,-642.5686108,-752.2609083,-2153.772093,866.6231698,62.27485574,69.04,59.52626149,67.04356092,-0.042239302,0,0.025114472,0.118554105
301,33,0.9,2,32.5443787,1500,-7856,1442,128,-33,1498,-2653.463529,-2184.702559,-561.1509119,-660.2745956,-2184.990698,519.8588382,62.22514841,69.04,59.55301158,67.16377015,-0.049707339,0,0.026750093,0.120209232
301,33,0.9,2,33.13609467,1330,-7830,1402,97,-76,1458,-2696,-1996,-444,-554,-2195,129,62.19156352,69.04,59.58141694,67.28431257,-0.033584885,0,0.028405365,0.120542412
301,33,0.9,2,33.72781065,938,-7918,1342,51,-107,1352,-2589.638728,-1831.818141,-218.665139,-424.9014176,-2125.59114,-354.2318587,62.17834448,69.04,59.61149723,67.40386621,-0.013219036,0,0.030080289,0.119553645
301,33,0.9,2,34.31952663,755.0666667,-7948.409752,1357.555556,18.52912537,-92.22222222,1226.039516,-2366.388568,-1695.665429,47.5563194,-282.5599899,-1986.848947,-880.711859,62.16674009,69.04,59.6432721,67.52110914,-0.011604396,0,0.031774865,0.117242931
301,33,0.9,2,34.9112426,626.5333333,-7968.051382,1386.444444,-8.4206225,-64.77777778,1089.667506,-2170,-1572,176,-143,-1883,-1336,62.15661148,69.04,59.67676119,67.63471941,-0.01012861,0,0.033489093,0.11361027
301,33,0.9,2,35.50295858,578,-7976,1402,-33,-50,960,-2054,-1460,56,-13,-1845,-1666,62.14801943,69.04,59.71198416,67.74337507,-0.008592042,0,0.035222972,0.108655662
301,33,0.9,2,36.09467456,669.1416026,-7976.919042,1281.657324,-61.11111111,-50.22770701,843.3482962,-1866.076209,-1389.663324,131.025641,148.1895034,-1778.987119,-2104.880085,62.14102474,69.04,59.74896067,67.84575418,-0.006994692,0,0.036976503,0.102379107
301,33,0.9,2,36.68639053,808,-7978,1068,-77,-51,734,-1688,-1304,208,317,-1735,-2559,62.13568818,69.04,59.78771035,67.94053479,-0.005336559,0,0.038749686,0.094780606
301,33,0.9,2,37.27810651,892,-7998,862,-63,-70,633,-1572.848168,-1008.613839,210.974359,466.0248515,-1763.302141,-2939.675967,62.13207054,69.04,59.82837189,68.02651309,-0.003617644,0,0.040661535,0.085978303
301,33,0.9,2,37.86982249,816,-8013.785714,945.2985782,-55.4251497,-64.625,547.3458122,-1512,-688,212,623,-1824,-3296,62.13023259,69.04,59.87471097,68.1058787,-0.001837947,0,0.046339085,0.079365611
301,33,0.9,2,38.46153846,740,-8030,1118,-52,-54,466,-1506,-558,-62,820,-1926,-3641,62.13,69.04,59.92797614,68.17775856,-0.000232593,0,0.053265167,0.071879858
301,33,0.9,2,39.05325444,756,-8052,1380,-73,-40,382,-1654.625445,-427.0339806,-57.63218391,996.5863435,-1969.636767,-3963.686792,62.13,69.04,59.98743105,68.23921716,0,0,0.059454907,0.061458599
301,33,0.9,2,39.64497041,686.5185185,-8068.591065,1256.592593,-99.30639731,-35.15633833,291.8431664,-1936,-354,-46,1160,-1988,-4245,62.13,69.04,60.06267606,68.28617455,0,0,0.075245008,0.046957392
301,33,0.9,2,40.23668639,557.4814815,-8082.295533,1027.407407,-125.8754209,-32.21743857,198.1792974,-2271.488861,-548.1164384,36.63218391,1313.5856,-1984.197674,-4485.418832,62.13,69.04,60.12968567,68.32985173,0,0,0.067009615,0.04367718
301,33,0.9,2,40.82840237,488,-8088,904,-138,-28,104,-2630,-890,112,1454,-1976,-4648,62.13,69.04,60.16873119,68.38347492,0,0,0.039045516,0.053623188
301,33,0.9,2,41.42011834,548,-8050,1028,-124,-19,10,-2918,-1212,30,1575,-1962,-4707,62.13,69.02356646,60.1930775,68.41812165,0,-0.016433536,0.024346316,0.034646734
301,33,0.9,2,42.01183432,1060,-8092,1422,-137,-61,-63,-3397.38899,-1648.751956,22.38668555,1711.27738,-1880.642054,-4788.479682,62.13,68.96784832,60.20911614,68.44195286,0,-0.055718144,0.016038639,0.023831206
301,33,0.9,2,42.6035503,1248,-8060,1446,-169,-87,-63,-3948,-2200,20,1830,-1738,-4839,62.119653,68.93834093,60.22407274,68.46243862,-0.010346996,-0.029507388,0.014956596,0.020485762
301,33,0.9,2,43.19526627,1120,-7904,1086,-231,-106,-89,-4379.755267,-2903.979994,25.06097561,1920.173913,-1558.049901,-4817.091382,62.09024042,68.91772814,60.24504883,68.48467363,-0.029412583,-0.020612792,0.020976089,0.02223501
301,33,0.9,2,43.78698225,1089.671642,-7916.896,1049.963405,-270.7238135,-105.0590769,-145.3883659,-4922,-3794,40,1966,-1323,-4765,62.06433397,68.89512184,60.2773591,68.50620142,-0.025906447,-0.022606297,0.032310269,0.02152779
301,33,0.9,2,44.37869822,1067.080597,-7947.648,1034.47883,-306.464851,-102.7372308,-231.5199554,-6096,-5000,130,1941,-1009,-4643,62.06,68.85877701,60.31662405,68.52846618,-0.004333973,-0.036344832,0.03926495,0.022264763
301,33,0.9,2,44.9704142,1051.653731,-7984.352,1026.212554,-335.6439816,-99.78584615,-327.857362,-6667.157698,-5390.954902,97.00866592,1896.331708,-738.3926425,-4456.315001,62.06,68.80509364,60.35626794,68.5566555,0,-0.053683367,0.03964389,0.028189315
301,33,0.9,2,45.56213018,1042.81791,-8015.104,1011.830851,-355.6820749,-96.95630769,-414.8631791,-7146.98241,-5677.370519,6.145997774,1831.493331,-475.6879762,-4214.065864,62.13712402,68.75436061,60.39351395,68.60288623,0.077124023,-0.050733034,0.037246019,0.046230732
301,33,0.9,2,46.15384615,1040,-8028,978,-364,-95,-473,-7515.028273,-5881.908686,-130.4210033,1747.089099,-238.8869886,-3921.359226,62.18037037,68.70425883,60.43154655,68.65574117,0.043246347,-0.050101779,0.038032599,0.05285494
301,33,0.9,2,46.74556213,1510,-7988,762,-365,-94,-501,-7750.849424,-6027.231235,-300.5253363,1643.723245,-45.99066738,-3583.301725,62.08451989,68.65036331,60.47067122,68.70963669,-0.09585048,-0.053895526,0.039124666,0.053895526
301,33,0.9,2,47.33727811,1628,-8040,884,-358,-106,-485,-7834,-6136,-492,1522,85,-3205,62.06,68.64,60.50902879,68.72,-0.02451989,-0.010363306,0.038357571,0.010363306
301,33,0.9,2,47.92899408,1362,-8050,1250,-377,-142,-475,-7504,-6208,-810,1319,154,-2682,62.06,68.64,60.54635281,68.72,0,0,0.037324021,0
301,33,0.9,2,48.52071006,1078,-8010,1264,-417,-161,-513,-7516,-6222,-1318,1208,146,-2205,62.06,68.59647466,60.57778216,68.72,0,-0.043525341,0.031429346,0
301,33,0.9,2,49.11242604,792.948993,-8015.84082,1192.444444,-444.6373083,-171.7819118,-597.6099143,-8137.317136,-6566.328377,-1351.739496,1090.629623,287.8489947,-1734.113794,62.06300781,68.56,60.62600563,68.72,0.003007812,-0.036474659,0.048223473,0
301,33,0.9,2,49.70414201,529.6967187,-8027.903861,1059.555556,-467.3413643,-179.8354003,-723.9536374,-8748,-7074,-1362,950,564,-1294,62.1190625,68.56,60.76592623,68.72,0.056054688,0,0.139920596,0
301,33,0.9,2,50.29585799,414,-8038,988,-488,-183,-859,-8454,-7382,-336,738,912,-921,62.11520409,68.5435864,60.79,68.72,-0.00385841,-0.016413597,0.024073772,0
301,33,0.9,2,50.88757396,552.1343524,-8042.074998,1000.280549,-508.5081246,-180.3552632,-1016.581898,-7830.86029,-7264.263685,-2.355003302,508.9431194,1238.700218,-628.7522934,62.06406504,68.48496642,60.79,68.72,-0.05113905,-0.058619988,0,0
301,33,0.9,2,51.47928994,826,-8048,1030,-525,-177,-1144,-7004.161083,-6936.749593,210.9336095,291.0271153,1532.46122,-362.4882957,62.03085886,68.42709546,60.79,68.72,-0.033206184,-0.057870955,0,0
301,33,0.9,2,52.07100592,1190,-8102,1104,-535,-176,-1192,-6378,-6438,286,194,1660,-23,61.98804798,68.4,60.79300781,68.72,-0.04281088,-0.027095461,0.003007813,0
301,33,0.9,2,52.66272189,2088.71362,-8200.981775,1196.5,-551.0086207,-114.0557785,-1157.56713,-6129.045217,-3764.583741,19.53837621,262.4444444,1562.777778,661.5569394,61.89894498,68.4,60.8490625,68.72,-0.089102996,0,0.056054688,0
301,33,0.9,2,53.25443787,3084,-8268,1252,-577,-53,-1073,-5959.107865,601.5970186,-672.7010254,389.5555556,1382.222222,1504.222914,61.84159651,68.3771382,60.86,68.70378384,-0.057348468,-0.022861795,0.0109375,-0.016216162
301,33,0.9,2,53.84615385,3805.56388,-8048,1238.911488,-660.576087,-198.5,-783.5613678,-5560,2894,-1630,458,1285,1916,61.80386994,68.32079788,60.86,68.64509405,-0.037726571,-0.056340322,0,-0.058689788
301,33,0.9,2,54.43786982,4180,-7828,1202,-731,-344,-436,636,-10416,-3496,-1992,1911,956,61.75764566,68.32,60.86,68.58418423,-0.046224282,-0.000797883,0,-0.060909817
301,33,0.9,2,55.0295858,3489,-8012,684.0885122,-736.173913,-308,-255.650593,3677.849177,-10011.13115,-5710.338416,-1744.242489,1018.54579,1053.030214,61.74284037,68.32,60.86,68.56,-0.014805289,0,0,-0.024184232
301,33,0.9,2,55.62130178,2798,-8196,190,-738,-272,-108,5012,-9190,-7016,-1276,28,1271,61.7803006,68.32,60.86,68.56,0.037460229,0,0,0
301,33,0.9,3,56.21301775,3164.592593,-7941.925926,244.2789994,-685.8020056,-384.3876894,17.07031608,170.484322,-7839.487514,-4956.264278,-591.7575107,-130.5457897,1852.469786,61.84928321,68.29999593,60.86,68.54376132,0.068982613,-0.020004071,0,-0.016238676
301,33,0.9,3,56.80473373,3845.407407,-7470.074074,389.6691098,-586.7151224,-597.8864899,133.8408356,-5614,-6596,-992,-128,-191,2313,61.92897083,68.25069815,60.86,68.4850795,0.079687617,-0.049297781,0,-0.058681828
301,33,0.9,3,57.3964497,4212,-7216,600,-527,-727,308,-6858,-6160,3840,-476,71,1850,61.8944043,68.25,60.8465033,68.43454507,-0.034566532,-0.000698148,-0.013496704,-0.050534425
301,33,0.9,3,57.98816568,1862.596121,-10720,1280.519459,-518.6670321,-747.7721828,856.1874085,-6162.517574,-7102,2389.442925,-811.6240713,351.377095,1225.908051,61.87,68.25,60.81527161,68.38242637,-0.024404297,0,-0.031231689,-0.052118698
301,33,0.9,3,58.57988166,-998,-14224,1844,-514,-756,1292,-4964,-8044,310,-996,511,842,61.87,68.25,60.79173035,68.3333782,0,0,-0.02354126,-0.049048171
301,33,0.9,3,59.17159763,-1686,-11112,878,-511,-611,1119,-3639.482426,-7567,-981.4429249,-838.0502959,434.1859504,870.637574,61.87,68.25,60.79,68.2851694,0,0,-0.001730347,-0.048208799
301,33,0.9,3,59.76331361,-478,-10988,-756,-457,-478,884,-2818,-7090,-1644,-602,279,923,61.87,68.25,60.79,68.25039724,0,0,0,-0.034772165
301,33,0.9,3,60.35502959,-770.8766467,-11449,-319.7196172,-354.0289689,-488.8571429,935,-3258,-7698,-1278,-468,61,978,61.87,68.25,60.79,68.25,0,0,0,-0.000397237
301,33,0.9,3,60.94674556,-1272,-11910,376,-243,-516,986,-4496.633588,-7640,-157.8051797,-441.3306709,97.01359517,831.7730061,61.87,68.25,60.79163035,68.24813674,0,0,0.001630353,-0.001863261
301,33,0.9,3,61.53846154,-1688.797181,-11391,948.9860471,-150.6601124,-637.647205,774.9602203,-5436,-7582,708,-432,169,558,61.87,68.25,60.81403066,68.22253638,0,0,0.022400312,-0.025600356
301,33,0.9,3,62.13017751,-2148,-10872,1334,-101,-744,469,-4884,-7666,418,-457,267,250,61.88898438,68.25,60.84461196,68.18758633,0.018984375,0,0.030581295,-0.034950051
301,33,0.9,3,62.72189349,-2859.326172,-11602.99213,1453.73357,-188.1560258,-745.4956522,323.8574089,-4146,-7420,-260,-403,241,145,61.93,68.25,60.86,68.17,0.041015625,0,0.01538804,-0.017586332
301,33,0.9,3,63.31360947,-3320,-12462,1502,-353,-746,169,-3732.859435,-7536,-822.5659522,-297.7871097,162.105381,122.523631,61.93,68.25,60.81583147,68.17,0,0,-0.044168532,0
301,33,0.9,3,63.90532544,-2622,-12628,922,-544,-428,-137,-3544,-7652,-1116,-178,74,105,61.93,68.25,60.79,68.17,0,0,-0.025831468,0
301,33,0.9,3,64.49704142,-115.536945,-10838,420.9799292,-823.1324297,-351.5080374,-660.959351,-3639.900885,-7629.787234,-650,-78.11092153,29.31147054,73.50683234,61.93,68.25,60.79,68.17,0,0,0,0
301,33,0.9,3,65.0887574,2498,-9048,156,-1031,-272,-1378,-3842,-7580,-184,0,-10,27,61.93,68.25,60.79,68.1953125,0,0,0,0.0253125
301,33,0.9,3,65.68047337,3632.392255,-10724.37037,431.8222374,-1088.178131,303.7375749,-2382.42121,-4164,-7484,-208,43,-58,-61,61.93,68.25,60.79,68.25,0,0,0,0.0546875
301,33,0.9,3,66.27218935,4144,-13642,1014,-1111,1127,-3486,-4612.851351,-7370.690647,-333.2662722,104.4919691,-70.13803681,-217.7912066,61.97416853,68.25,60.79,68.25,0.044168532,0,0,0
301,33,0.9,3,66.86390533,4122,-16296,1946,-1080,1719,-4413,-4892,-7304,-440,167,-79,-401,61.99836965,68.24813674,60.79,68.25,0.024201114,-0.001863261,0,0
301,33,0.9,3,67.4556213,3365.327884,-14943.89632,2293.409054,-1067.285503,1717.234435,-4807.33242,-4673.741117,-7407.133858,-200,216.2733996,-93.9893617,-570.844043,61.97596934,68.22253638,60.79,68.25,-0.022400312,-0.025600356,0,0
301,33,0.9,3,68.04733728,2628,-12852,2434,-1062,1712,-4973,-4396,-7526,40,256,-107,-721,61.94538804,68.18758633,60.79,68.25,-0.030581295,-0.034950051,0,0
301,33,0.9,3,68.63905325,2944.129469,-11185.10368,1855,-1128,1425.573439,-4917.342935,-4312,-7546,-96,283,-113,-828,61.93,68.17,60.79,68.25,-0.01538804,-0.017586332,0,0
301,33,0.9,3,69.23076923,3374,-10258,1276,-1194,932,-4825,-4187.393797,-7512.814815,-183.8062678,335.5219839,-140.8386613,-945.8432822,61.96466553,68.17,60.79,68.25,0.034665532,0,0,0
301,33,0.9,3,69.82248521,3580.918968,-10434.2963,1288.711456,-1156.148148,483.3167691,-4757.503916,-4049.36605,-7451.185185,-252.3475783,407.7751002,-185.6857442,-1068.557909,62.01106493,68.17,60.79,68.25,0.046399396,0,0,0
301,33,0.9,3,70.41420118,3741.072073,-10761.7037,1322.3118,-1085.851852,6.343423055,-4690.477882,-3968,-7418,-280,479,-217,-1185,62.04653929,68.17,60.79,68.25,0.035474366,0,0,0
301,33,0.9,3,71.00591716,3846,-10938,1370,-1048,-459,-4607,-3952.033464,-7500,-234.1841155,542.4684133,-230.0918565,-1293.431173,62.11651593,68.17,60.79,68.20681649,0.06997664,0,0,-0.043183512
301,33,0.9,3,71.59763314,3915.623891,-10927.48869,1511.116279,-1073.428571,-897.1026154,-4487.761665,-3932,-7610,-182,604,-236,-1390,62.18909831,68.17,60.79,68.09710408,0.072582372,0,0,-0.109712405
301,33,0.9,3,72.18934911,3948,-10892,1626,-1112,-1323,-4330,-3616,-7652,-174,662,-227,-1466,62.19,68.21746094,60.72988281,68.03157426,0.000901695,0.047460938,-0.060117188,-0.065529822
301,33,0.9,3,72.78106509,3696,-10092,1278,-1135,-1737,-4110,-3397.039055,-7668.689739,-161.7585738,764.5027563,-252.6666667,-1511.124445,62.19,68.25,60.65622299,68.01,0,0.032539062,-0.073659825,-0.021574261
301,33,0.9,3,73.37278107,3284.142862,-9611.981874,700.7749075,-1087.983356,-1974.638684,-3939.855714,-3221.74175,-7679.900425,-142.9018246,885.2242948,-300.3333333,-1546.113119,62.19,68.25,60.62045586,68.01,0,0,-0.035767125,0
301,33,0.9,3,73.96449704,2850,-9222,200,-1026,-2087,-3798,-3150,-7684,-112,953,-326,-1587,62.19,68.26589924,60.57904824,67.9881636,0,0.015899238,-0.041407619,-0.021836401
301,33,0.9,3,74.55621302,2540,-8842,16,-1004,-2091,-3684,-3234,-7646.666667,94.42253237,968.3324074,-324.1843475,-1641.232678,62.19,68.32,60.55,67.93,0,0.054100762,-0.029048244,-0.058163599
301,33,0.9,3,75.14792899,2190,-8318,-90,-954,-1924,-3511,-3390,-7577.333333,480.3555448,978.3884259,-319.0353617,-1704.678258,62.19,68.42308012,60.55,67.88942662,0,0.103080121,0,-0.040573379
301,33,0.9,3,75.73964497,2087.812209,-7912.18492,-294.9302503,-931.3335785,-1648.179351,-3359.0363,-3474,-7540,812,982,-311,-1776,62.19,68.50030822,60.54505088,67.82974005,0,0.077228096,-0.004949117,-0.059686575
301,33,0.9,3,76.33136095,2024.017216,-7562.26521,-554.9060355,-915.8353251,-1284.18024,-3217.368686,-3264.42796,-7574.5,1040.490848,951.2623239,-276.4154161,-1884.20356,62.19,68.53741971,60.50675216,67.73025995,0,0.037111493,-0.038298719,-0.099480092
301,33,0.9,4,76.92307692,2002,-7266,-742,-892,-889,-3078,-2884,-7632,1180,903,-234,-1955,62.23113281,68.64163496,60.46463885,67.67275899,0.041132813,0.104215253,-0.042113319,-0.057500965
301,33,0.9,4,77.5147929,2074.924282,-7049.54381,-841.4650566,-832.9076809,-464.7353302,-2946.164759,-2394.061037,-7681.833333,1211.448241,872.4740397,-215.0451223,-1947.509868,62.32,68.8,60.42,67.63,0.088867188,0.158365038,-0.044638845,-0.042758989
301,33,0.9,4,78.10650888,2212,-6816,-892,-751,0,-2802,-2072,-7724,1236,840,-197,-1932,62.32,68.84800966,60.37330529,67.52579488,0,0.048009661,-0.046694712,-0.104205123
301,33,0.9,4,78.69822485,2368,-6392,-898,-664,498,-2605,-2069.169706,-7748.780411,1290.702703,789.6170198,-169.9442502,-1907.439111,62.32689771,68.92531863,60.36,67.44967252,0.006897709,0.077308969,-0.013305288,-0.076122362
301,33,0.9,4,79.28994083,2462.758014,-6062.465539,-885.8381295,-598.6296469,838.7044695,-2436.555441,-2066,-7770,1328,738,-135,-1879,62.37601779,69.08792638,60.36,67.41219896,0.049120083,0.162607746,0,-0.037473558
301,33,0.9,4,79.8816568,2550,-5810,-856,-540,1112,-2289,-1850,-7794,1260,702,-86,-1857,62.41827419,69.17163288,60.35027628,67.36743742,0.042256398,0.083706505,-0.009723716,-0.044761535
301,33,0.9,4,80.47337278,2666,-5652,-778,-481,1337,-2167,-1394.750357,-7829.990377,1243.853211,660.1541617,-64.25182815,-1789.759467,62.45836628,69.23406735,60.31245929,67.31746746,0.040092086,0.062434473,-0.037816998,-0.049969963
301,33,0.9,4,81.06508876,2734.784717,-5455.790649,-587.0561293,-405.9056195,1544.119538,-1973.191905,-1074,-7860,1238,618,-55,-1694,62.49740553,69.27285247,60.264823,67.26773639,0.039039251,0.038785119,-0.047636288,-0.049731071
301,33,0.9,4,81.65680473,2806,-5198,-368,-318,1708,-1737,-1109.112412,-7870.375671,1329.586569,582.8642761,-66.5,-1588.374773,62.53424534,69.28,60.22585023,67.22400513,0.036839815,0.007147527,-0.038972769,-0.043731256
301,33,0.9,4,82.24852071,2964.86,-4814.393929,-193.953178,-213.1277925,1826.382587,-1497.841226,-1168,-7880,1472,545,-78,-1495,62.56870999,69.28,60.19078762,67.18553371,0.034464648,0,-0.035062609,-0.038471421
301,33,0.9,4,82.84023669,3191.32,-4300.725523,-24.06949153,-93.71500624,1932.034522,-1245.630692,-1216,-7900,1564,491,-49,-1444,62.61713438,69.28,60.14753926,67.11007159,0.048424394,0,-0.043248361,-0.075462124
301,33,0.9,4,83.43195266,3394.12,-3695.194355,104.8489407,26.05528314,2007.919196,-970.8548117,-947.7712082,-7934.2,1647.255814,420.4397232,-4.521356784,-1350.839551,62.65,69.28213992,60.12,67.01201288,0.032865617,0.002139918,-0.02753926,-0.098058705
301,33,0.9,4,84.02366864,3482,-3036,156,132,2037,-664,-612,-7972,1692,348,24,-1226,62.65,69.43934156,60.12,66.93548341,0,0.157201646,0,-0.076529473
301,33,0.9,4,84.61538462,3398.936681,-2186.851803,118.3953488,224.492864,1909.075744,-314.6558006,-491.2287918,-8009.030769,1686.096667,285.8041256,-4,-1066.95285,62.65,69.52,60.12,66.8662466,0,0.080658436,0,-0.069236808
301,33,0.9,4,85.20710059,3266,-1360,72,299,1634,124,-438,-8030,1670,231,-32,-903,62.65,69.52,60.12,66.80604081,0,0,0,-0.060205794
301,33,0.9,4,85.79881657,3172,-836,60,346,1168,775,-574,-7976,1584.620997,177.2836991,-23.58464329,-773.8677302,62.6744043,69.52,60.12,66.76009766,0.024404297,0,0,-0.045943147
301,33,0.9,4,86.39053254,3044,-790,40,394,861,1240,-710,-7922,1392,145,-1,-656,62.71,69.52,60.12,66.71369231,0.035595703,0,0,-0.046405348
301,33,0.9,4,86.98224852,2702,-1176,64,528,483,1918,-676,-7956,868,141,83,-543,62.71,69.52,60.12,66.62086779,0,0,0,-0.09282452
301,33,0.9,4,87.5739645,2408.086538,-1169.524497,111.5865385,669.6107027,377.3509615,2418.005011,-703.4418417,-7982.483051,1076,138.6649604,31.1984127,-397.7426213,62.73675453,69.52,60.110625,66.54646762,0.026754533,0,-0.009375,-0.074400169
301,33,0.9,4,88.16568047,2137.171304,-1150.065327,177.0769231,816.1111129,302.4230769,2847.589947,-782,-7996,1380,135,-24,-274,62.89222801,69.52,60.06257813,66.49876079,0.155473472,0,-0.048046875,-0.047706831
301,33,0.9,4,88.75739645,1879.170418,-1117.573492,235.0288462,955.5559667,257.7836538,3230.87991,-1180,-7954,1540,97,-28,-215,62.94584755,69.52,60.06,66.45812333,0.053619541,0,-0.002578125,-0.040637459
301,33,0.9,4,89.34911243,1624,-1072,260,1076,243,3592,-1021,-8046,1700.573123,35.4902322,34.5,-190.8980194,62.98,69.52,60.06,66.42,0.034152453,0,0,-0.038123333
301,33,0.9,4,89.9408284,1311.720881,-792.9673367,-86.19941776,1165.637526,331.901087,3943.838384,-862,-8138,1790,-28,97,-167,63.02418355,69.56296875,60.02777344,66.37728881,0.044183546,0.04296875,-0.032226563,-0.04271119
301,33,0.9,4,90.53254438,1128,-540,-594,1258,517,4234,-927.4797664,-8104.814815,1700.787879,-75.99783009,85.33333333,-96.14196744,63.065519,69.62375,59.9821875,66.3317739,0.041335456,0.06078125,-0.045585938,-0.045514914
301,33,0.9,4,91.12426036,1177.353554,-808.742515,-934.8005822,1409.85643,811.2815429,4447.86398,-1067.181755,-8043.185185,1526.242424,-117.7880035,63.66666667,2.67840033,63.10229761,69.67765625,59.94175781,66.28216337,0.036778608,0.05390625,-0.040429688,-0.049610525
301,33,0.9,4,91.71597633,1306,-1244,-1114,1552,1163,4604,-1196,-8010,1406,-150,52,65,63.14503076,69.68,59.94,66.19852897,0.042733151,0.00234375,-0.001757812,-0.083634402
301,33,0.9,4,92.30769231,1970.644278,-1525.160204,-827.0373832,1626.671512,1532.81737,4721.81685,-1282,-8018,1374,-171,79,80,63.18276256,69.68,59.94,66.11432804,0.037731795,0,0,-0.084200935
301,33,0.9,4,92.89940828,2760,-1876,-424,1688,1749,4780,-1119.703704,-8011.259259,1326.762174,-187.7879819,107.0730488,120.9137245,63.20307177,69.68,59.94,66.0623102,0.020309219,0,0,-0.052017838
301,33,0.9,4,93.49112426,3062,-2658,-240,1753,1592,4776,-818.2962963,-7998.740741,1275.825532,-203.1592971,133.3698577,188.1228152,63.21833009,69.68,59.9315978,66.05,0.015258318,0,-0.008402198,-0.012310197
301,33,0.9,4,94.08284024,3900.918611,-3251.223939,132.4870466,1716.366803,1520.189381,4733.148431,-656,-7992,1252,-222,145,264,63.2403254,69.68,59.88494606,66.05,0.021995311,0,-0.04665174,0
301,33,0.9,4,94.67455621,4746,-3734,392,1635,1461,4651,-673.3735567,-8006.518519,1282.074074,-248.7070551,125.037037,349.3592301,63.31071232,69.68,59.88,66.02906494,0.070386918,0,-0.004946061,-0.020935059
301,33,0.9,4,95.26627219,5044.699623,-4125.117331,384.2395709,1462.195471,1390.07544,4542.14756,-722.302669,-8033.481481,1337.925926,-281.9447225,87.96296296,448.050366,63.38,69.68089844,59.88,65.97536865,0.069287679,0.000898437,0,-0.053696289
301,33,0.9,4,95.85798817,5332,-4450,358,1265,1303,4381,-798,-8048,1368,-318,68,547,63.38,69.74144531,59.88,65.92153564,0,0.060546875,0,-0.053833008
301,33,0.9,4,96.44970414,5942,-4712,-250,1150,1164,4099,-1020,-7956,1368,-358,73,642,63.36679698,69.76,59.88,65.91,-0.013203018,0.018554688,0,-0.011535645
301,33,0.9,4,97.04142012,6769.584382,-4997.374687,-441.7484663,1080.396662,945.5229562,3819.882935,-1015,-7981,1409,-402.831309,110.0192308,705.2790243,63.31518519,69.76,59.88,65.91,-0.051611797,0,0,0
301,33,0.9,4,97.63313609,7502,-5372,-516,1008,666,3527,-1010,-8006,1450,-446,143,768,63.31,69.76,59.88,65.91,-0.005185185,0,0,0
301,33,0.9,4,98.22485207,7975.272085,-6097.948299,-343.9470199,871.3228828,313.4961336,3195.824329,-1010,-7963.8125,1294,-486.8613485,107.5,870.5745702,63.30854004,69.76,59.87865234,65.91,-0.001459961,0,-0.001347656,0
301,33,0.9,4,98.81656805,8206,-6968,-36,714,-58,2844,-1010,-7898,1138,-514,72,962,63.21015137,69.76,59.78783203,65.91,-0.098388672,0,-0.090820313,0
301,33,0.9,4,99.40828402,8114,-7692,268,584,-371,2482,-1298.031414,-7844.1875,1155.185841,-520.3125072,77.42647059,1010.628688,63.18760737,69.76,59.76,65.91,-0.022543999,0,-0.027832031,0
301,33,0.9,4,100,7840.738666,-8124.240571,548.3484321,399.796713,-781.8614669,2056.700425,-1646,-7814,1202,-527,90,1037,63.23358233,69.76,59.76,65.91,0.045974964,0,0,0
301,33,0.9,1,0,7446,-8326,700,172,-1240,1633,-1726,-7878,1388,-559,117,1043,63.28749542,69.76,59.7684022,65.91,0.053913088,0,0.008402198,0
301,33,0.9,1,0.584795322,7022,-8186,626,-111,-1707,1276,-1822.676796,-7912.953846,1321.236364,-611.9942597,139.9379795,1029.286859,63.31,69.76,59.79264401,65.91,0.02250458,0,0.024241807,0
301,33,0.9,1,1.169590643,6340.118814,-7991.100201,415.662227,-283.5331362,-1890.847143,1013.623868,-1950,-7942,1184,-649,152,1000,63.31,69.76,59.81505394,65.91,0,0,0.022409933,0
301,33,0.9,1,1.754385965,5456.982243,-7783.01012,59.915859,-416.7475416,-2014.034682,791.7703417,-2175.797905,-7983.123077,984.0913451,-652.6842105,148.5,955.7196984,63.3209375,69.76,59.82,65.91,0.0109375,0,0.004946061,0
301,33,0.9,1,2.339181287,4516,-7672,-356,-522,-2059,591,-2432,-8008,728,-654,145,887,63.37699219,69.76,59.82,65.91,0.056054688,0,0,0
301,33,0.9,1,2.923976608,3520,-7656,-876,-600,-1777,412,-2628,-7922,450,-642,183,767,63.38,69.805,59.82,65.91,0.003007813,0.045,0,0
301,33,0.9,1,3.50877193,2914,-7654,-1126,-657,-1393,288,-2383,-8013,547,-611.7431264,191.1197772,679.2995173,63.38,69.85,59.82,65.91,0,0.045,0,0
301,33,0.9,1,4.093567251,13932,-20211,-2969.919969,-826.6702454,-377.133046,-677.3372307,-2138,-8104,644,-580,194,617,63.38,69.85,59.82,65.91,0,0,0,0
301,33,0.9,1,4.678362573,24950,-32768,-4612,-957,382,-1982,-2144,-8040,610,-565,181,584,63.3909375,69.85,59.82,65.91,0.0109375,0,0,0
301,33,0.9,1,5.263157895,7984,-4190,-788,659,-287,-2733,-2174,-7958,902,-566,167,524,63.44699219,69.85,59.82,65.91,0.056054688,0,0,0
301,33,0.9,1,5.847953216,6095.547525,-4494.304,-942.752,530.456,-286.0450317,-2572.008,-2760,-8468,712,-599,155,463,63.45,69.80896601,59.82,65.91,0.003007812,-0.041033991,0,0
301,33,0.9,1,6.432748538,4873.916583,-5219.952,-1311.776,223.928,-282.655095,-2188.104,-2780.585011,-8466.444444,768.5185185,-652.112527,166.0489095,375.2391563,63.45,69.76,59.82,65.91,0,-0.048966009,0,0
301,33,0.9,1,7.01754386,4110.911879,-6086.048,-1752.224,-141.928,-276.0426425,-1729.896,-2791.070283,-8463.555556,873.4814815,-719.9623448,193.5422635,267.2756665,63.45,69.76,59.82,65.91,0,0,0,0
301,33,0.9,1,7.602339181,3598.338117,-6811.696,-2121.248,-448.456,-265.4201267,-1345.992,-2794,-8462,930,-789,229,151,63.46460411,69.76,59.82,65.89330959,0.014604112,0,0,-0.016690413
301,33,0.9,1,8.187134503,3128,-7116,-2276,-577,-250,-1185,-2603.674523,-8575.466321,804.5185185,-870.0511509,283.3936983,24.3211502,63.51732139,69.76,59.82,65.83306127,0.052717281,0,0,-0.060248321
301,33,0.9,1,8.771929825,2728,-6378,-384,-222,-28,-1426,-2142.237935,-8871.154864,571.4814815,-952.3589088,360.7119029,-112.9344117,63.52,69.72352534,59.82,65.83,0.002678608,-0.036474659,0,-0.003061266
301,33,0.9,1,9.356725146,2898.198962,-7455,570.0625,-390,-132.5,-1363.477291,-1574,-9282,446,-990,442,-246,63.52,69.68,59.82,65.83,0,-0.043525341,0,0
301,33,0.9,1,9.941520468,3228,-8532,992,-558,-237,-1236,-676.1526685,-10422.91921,908.5185185,-931.4074074,541.5354839,-395.6140917,63.52,69.68,59.82,65.83,0,0,0,0
301,33,0.9,1,10.52631579,3638,-8502,-488,-451,-199,-1052,467.3377607,-12074.45961,1767.481481,-822.5925926,645.7677419,-541.4181569,63.52,69.66330959,59.82,65.81539589,0,-0.016690413,0,-0.014604112
301,33,0.9,1,11.11111111,3928.461468,-7807.959574,-1170.382775,-235.0765871,-104.4510385,-976.8626861,1232,-12918,2230,-764,694,-607,63.52,69.60306127,59.82,65.76267861,0,-0.060248321,0,-0.052717281
301,33,0.9,1,11.69590643,4072,-7140,-1464,-12,2,-907,1488,-11036,876,-825,546,-457,63.62,69.6,59.82,65.795,0.1,-0.003061266,0,0.032321392
301,33,0.9,1,12.28070175,3940,-7886,24,111,66,-768,1807.067637,-11544.39291,751.1210093,-806.5,499.1560636,-215.4899129,63.72,69.59693873,59.82,65.83,0.1,-0.003061266,0,0.035
301,33,0.9,1,12.86549708,4424,-7773.602,580.5581131,102.5,40.5,-616.5751122,2188,-12410,712,-788,481,48,63.72,69.53669041,59.82,65.83,0,-0.060248321,0,0
301,33,0.9,1,13.4502924,4908,-7600,806,94,15,-446,2674,-13148,1808,-829,489,258,63.70980114,69.52,59.80748219,65.83,-0.010198863,-0.016690413,-0.01251781,0
301,33,0.9,1,14.03508772,4791.22314,-7462.398,155,127.594697,15,-204.2815633,3280.388762,-14035.97325,1796,-948.4958124,465.5,448.9205626,63.65928648,69.52,59.76229595,65.83,-0.050514656,0,-0.045186241,0
301,33,0.9,1,14.61988304,4548,-7386,-496,192,15,-4,3644,-14562,1784,-1088,442,632,63.61458948,69.48,59.76,65.83,-0.044697005,-0.04,-0.00229595,0
301,33,0.9,1,15.20467836,4059.77686,-7415.558059,-12.87904968,290.405303,95.5,73.57433208,2841.306717,-13261,2039,-1163.445805,484.3213802,788.2356691,63.57184052,69.44,59.76,65.83,-0.042748958,-0.04,0,0
301,33,0.9,1,15.78947368,3698,-7476,624,358,176,131,1194,-11960,2294,-1248,584,992,63.53254369,69.44,59.76,65.83,-0.039296831,0,0,0
301,33,0.9,1,16.37426901,3872,-7564,850,333,162,191,-1389.916729,-12107.44669,1200,-1495.779732,911.1786198,1531.735569,63.50550685,69.44,59.76,65.83,-0.027036838,0,0,0
301,33,0.9,1,16.95906433,3924,-7724,750,299,160,345,-4246,-12522,106,-1685,1181,2222,63.48709575,69.44,59.76,65.83,-0.018411096,0,0,0
301,33,0.9,1,17.54385965,3908.338849,-7706.308912,648.9034332,301.9208754,135.2121212,506.9805762,-6200,-14436,590,-1667,583,2776,63.46917371,69.44,59.76,65.819653,-0.017922039,0,0,-0.010346996
301,33,0.9,1,18.12865497,3867.344366,-7669.062268,540.6239984,310.3973064,92.60606061,667.2960547,-6610.764176,-16463.62756,389,-1745.076923,159.9561934,4081.422529,63.44288262,69.43693873,59.76,65.79024042,-0.026291096,-0.003061266,0,-0.029412583
301,33,0.9,1,18.71345029,3810,-7636,398,324,70,794,-6756,-17614,188,-1870,-49,5107,63.39164493,69.37669041,59.76,65.76433397,-0.05123769,-0.060248321,0,-0.025906447
301,33,0.9,1,19.29824561,3694,-7616,152,371,124,874,-6577.734075,-16672.04829,1906,-1953.683504,264.1260441,5210.075918,63.38,69.36,59.76,65.76,-0.011644929,-0.016690413,0,-0.004333973
301,33,0.9,1,19.88304094,4004,-7572.271186,205.2190476,425.2834988,162.7603878,987.6457019,-6386,-14834,3624,-2044,952,5282,63.38,69.36,59.76,65.76,0,0,0,0
301,33,0.9,1,20.46783626,4314,-7530,328,457,182,1129,-6370,-12502,1680,-2175,2197,5396,63.38,69.36,59.76,65.76,0,0,0,0
301,33,0.9,1,21.05263158,4262.658019,-7508.169492,691.2490375,451.8140794,161.7619048,1318.808453,-6221.34471,-11748.02935,394.616458,-2172.891156,3238.79739,5401.395987,63.37845986,69.3582723,59.76,65.76,-0.001540145,-0.001727697,0,0
301,33,0.9,1,21.6374269,4138,-7498,992,440,132,1501,-5876,-11364,-226,-2167,3980,5403,63.33826567,69.31269324,59.76,65.76,-0.040194189,-0.045579061,0,0
301,33,0.9,1,22.22222222,3824,-7574,1000,416,116,1613,-4610.393873,-11202.14047,-133,-2108.75211,4401.818703,5345.008976,63.27277993,69.22771042,59.74608398,65.76,-0.065485731,-0.084982818,-0.013916016,0
301,33,0.9,1,22.80701754,3475.098002,-7577.212802,827,417.137931,116.5,1710.580499,-3038,-11058,-40,-2028,4595,5230,63.18595822,69.12142051,59.70067383,65.76,-0.086821711,-0.106289918,-0.045410156,0
301,33,0.9,1,23.39181287,3166,-7580,654,420,117,1786,-2188,-10774,-90,-1984,4425,5077,63.13098608,69.12,59.7,65.78823652,-0.05497214,-0.001420506,-0.000673828,0.028236515
301,33,0.9,1,23.97660819,2946.996751,-7621.395349,725.1797488,433.362069,117,1828.539526,-1200,-9986,-496,-1922,3737,4755,63.11,69.12,59.7,65.83895921,-0.020986083,0,0,0.050722695
301,33,0.9,1,24.56140351,2786,-7660,866,445,117,1866,-582,-9244,-802,-1859,3081,4519,63.11,69.12,59.7,65.88657627,0,0,0,0.047617058
301,33,0.9,1,25.14619883,2688,-7640,1052,432,107,1915,45.45969767,-8041.54965,-1181.503592,-1786.313981,2155.025084,4319.644574,63.09608398,69.10144531,59.7,65.93238882,-0.013916016,-0.018554688,0,0.045812547
301,33,0.9,2,25.73099415,2708,-7664,1053.003189,411.2319573,91.80170388,1953.69755,627.6187377,-6616.94311,-1565.748399,-1705.449485,1073.728665,4132.083073,63.05067383,69.04089844,59.7,65.97574962,-0.045410156,-0.060546875,0,0.043360808
301,33,0.9,2,26.31578947,2728,-7688,1054,385,77,1991,884,-5584,-1756,-1613,86,3908,63.05,69.04,59.7,66.01366194,-0.000673828,-0.000898437,0,0.037912322
301,33,0.9,2,26.9005848,2662,-7664,1154,354,68,2034,499.5233051,-5094.088466,-1777.752548,-1501.625612,-739.3958176,3590.569696,63.0479205,69.04,59.70257813,66.0626027,-0.002079498,0,0.002578125,0.048940754
301,33,0.9,2,27.48538012,2417.357531,-7689.630208,1180.265306,318.0408068,36.4795558,2068.919951,-120,-4694,-1786,-1369,-1442,3232,63.00048588,69.04,59.750625,66.1537254,-0.047434625,0,0.048046875,0.091122703
301,33,0.9,2,28.07017544,2044,-7738,1190,297,-1,2087,-566.0338806,-4242.788741,-1424.832175,-1199.049894,-2033.966362,2880.888357,62.95454339,69.04,59.76,66.29250427,-0.04594249,0,0.009375,0.138778869
301,33,0.9,2,28.65497076,1608.20898,-7804.407105,930.5144766,299.2808219,-27.33027523,2048.474331,-1004,-3772,-824,-1030,-2464,2545,62.91383009,69.04,59.76,66.47440825,-0.040713294,0,0,0.181903984
301,33,0.9,2,29.23976608,1188,-7856,664,306,-41,1964,-1468,-3252,-346,-907,-2678,2257,62.87855024,69.04,59.76,66.61462827,-0.035279848,0,0,0.140220018
301,33,0.9,2,29.8245614,912,-7866,656,346,10,1812,-1764.903648,-2875.344757,200.1001965,-771.2550557,-2692.562811,1844.021052,62.84193147,69.04,59.76,66.74735553,-0.036618772,0,0,0.132727258
301,33,0.9,2,30.40935673,1071,-7864,799.2146724,364.8406593,39.42014446,1695.193805,-2018,-2494,518,-625,-2697,1389,62.79755247,69.04,59.76,66.88516511,-0.044378997,0,0,0.137809577
301,33,0.9,2,30.99415205,1230,-7862,1046,373,53,1606,-2310.98669,-1988.05283,379.7408377,-470.5799563,-2612.368461,984.9019585,62.75684908,69.04,59.79429269,67.02088648,-0.040703393,0,0.034292693,0.135721369
301,33,0.9,2,31.57894737,1158,-7878,1264,359,-3,1550,-2540,-1352,98,-298,-2440,565,62.71532064,69.04,59.87880318,67.15610976,-0.041528439,0,0.084510482,0.135223282
301,33,0.9,2,32.16374269,886.9197341,-7888.265495,1197.62963,333.7548221,-2.915963191,1434.805363,-2642,-454,-308,-85,-2192,70,62.63437276,69.04,59.88,67.30619228,-0.080947884,0,0.001196825,0.150082519
301,33,0.9,2,32.74853801,493.2376448,-7897.165136,1074.37037,304.1540887,-2.60970416,1273.106221,-2426,-256,-438,40,-2016,-271,62.56665849,69.04,59.88340729,67.43082055,-0.067714271,0,0.003407287,0.12462827
301,33,0.9,2,33.33333333,292,-7914,1008,289,-2,1115,-1965.899412,-726.7415024,-188.2604249,208.2016402,-1814.823744,-763.5155065,62.53373688,69.04,59.92334215,67.51624464,-0.032921611,0,0.039934867,0.085424095
301,33,0.9,2,33.91812865,482,-7996,1246,288,30,979,-1397.838595,-1649.927449,310.3680391,398.7983598,-1619.022983,-1322.382198,62.49044764,69.0171382,59.96102839,67.60630969,-0.043289242,-0.022861795,0.037686242,0.090065046
301,33,0.9,2,34.50292398,717.2764706,-7972,1655.726195,243.270799,-4.7043222,888.1398396,-1120,-2292,682,567,-1531,-1741,62.45048772,68.96079788,59.99637486,67.6933541,-0.039959918,-0.056340322,0.035346468,0.087044405
301,33,0.9,2,35.0877193,858,-7948,1928,163,-68,800,-1302,-2470,816,692,-1801,-1955,62.45,68.96,60.03380538,67.74768406,-0.000487717,-0.000797883,0.03743052,0.054329961
301,33,0.9,2,35.67251462,528,-7992,1662,79,-134,678,-1589.56591,-2021.876448,544.3899371,820.2646142,-2199.793301,-2178.924365,62.44675917,68.96659475,60.07076099,67.7937213,-0.003240831,0.006594749,0.036955608,0.046037241
301,33,0.9,2,36.25730994,234.6717791,-8006.566055,1343.984757,45.51515152,-100.9444444,505.8606364,-1954,-1318,244,952,-2502,-2425,62.40755089,69.02879707,60.10570735,67.8375809,-0.039208274,0.06220232,0.034946364,0.0438596
301,33,0.9,2,36.84210526,78,-8018,1156,19,-66,331,-2389.401195,-730.1235521,197.6100629,1088.519532,-2592.380133,-2706.258441,62.35868468,69.04,60.14750971,67.91335535,-0.048866214,0.011202931,0.041802357,0.075774457
301,33,0.9,2,37.42690058,354.7519685,-8039.774194,1369,-17.24600737,-63.05555556,186.5999183,-2866,-398,180,1229,-2629,-3044,62.32,69.04,60.18,68.01,-0.03868468,0,0.032490288,0.096644646
301,33,0.9,2,38.01169591,758,-8054,1582,-53,-62,79,-3334,-1336,874,1374,-2442,-3509,62.32,69.04,60.18,68.05594081,0,0,0,0.045940808
301,33,0.9,2,38.59649123,968,-8050,1542,-82,-74,25,-3174,-2529.587619,1292.199374,1500.801451,-2220.513514,-3832.157458,62.31675917,69.03340525,60.18989212,68.11595563,-0.003240831,-0.006594749,0.009892123,0.06001482
301,33,0.9,2,39.18128655,902.8478261,-8088,1376.02106,-102.7757092,-90.65325548,-26.82258065,-3014,-3250,1488,1624,-2090,-4038,62.27755089,68.97120293,60.2831956,68.23211005,-0.039208274,-0.06220232,0.093303481,0.11615442
301,33,0.9,2,39.76608187,806,-8126,1238,-122,-108,-83,-3213.825342,-3125.691729,1022.580903,1765.22951,-2149,-4124.998669,62.23418481,68.96,60.3,68.25,-0.043366085,-0.011202931,0.016804396,0.017889952
301,33,0.9,2,40.35087719,752,-8094,1236,-144,-122,-155,-3606,-2854,310,1887,-2208,-4182,62.19,68.96,60.3,68.25,-0.04418481,0,0,0
301,33,0.9,2,40.93567251,872,-8088,1286,-154,-121,-197,-4112,-2370,-128,1958,-2193,-4226,62.14550981,68.96,60.32930999,68.28353009,-0.044490194,0,0.029309994,0.03353009
301,33,0.9,2,41.52046784,788.5185185,-8062.25762,1272,-184.5859785,-132.1481481,-265.3718934,-4643.573674,-2528.700052,-195.4317147,2037.801753,-2099.371857,-4278.772021,62.13,68.95620575,60.37042178,68.33341652,-0.015509806,-0.003794254,0.041111786,0.04988643
301,33,0.9,2,42.10526316,633.4814815,-8023.795477,1246,-232.1416539,-152.8518519,-356.4261916,-5152,-2878,-218,2084,-1952,-4310,62.13,68.90622781,60.4049893,68.38061364,0,-0.049977937,0.034567525,0.04719712
301,33,0.9,2,42.69005848,550,-8004,1232,-274,-164,-460,-5582,-3514,-214,2070,-1809,-4257,62.10785156,68.8233531,60.44581519,68.42985935,-0.022148438,-0.082874707,0.040825886,0.049245705
301,33,0.9,2,43.2748538,609.5071869,-8008,1321,-300.9202174,-144.5,-599.3984301,-6004,-4010,-270,2029,-1738,-4160,62.06,68.72,60.49,68.48,-0.047851562,-0.103353102,0.04418481,0.050140654
301,33,0.9,3,43.85964912,730,-8012,1410,-327,-125,-722,-6367.324541,-4404.667918,-377.9597157,1949.480498,-1658.570061,-3973.397686,62.06,68.67037819,60.5256797,68.52695412,0,-0.049621806,0.035679696,0.046954124
301,33,0.9,3,44.44444444,943.9131493,-7995.925926,1338.037532,-364.8688461,-134.5023947,-786.3146563,-6672.037378,-4713.369207,-537.3788469,1830.488654,-1576.754713,-3693.580812,62.0501813,68.62516519,60.5611261,68.57483481,-0.009818697,-0.045213,0.035446409,0.047880683
301,33,0.9,3,45.02923977,1213.401019,-7966.074074,1180.741731,-406.0000457,-155.7825672,-834.2833938,-6970.799926,-5006.278463,-721.9749174,1682.334576,-1488.421996,-3336.090993,61.95143669,68.57449684,60.59912737,68.62550316,-0.098744615,-0.050668354,0.038001265,0.050668354
301,33,0.9,3,45.61403509,1346,-7950,1026,-431,-178,-867,-7316.273601,-5353.570283,-905.4654506,1515.328369,-1389.439946,-2916.469841,61.90530441,68.5286352,60.6335236,68.67920246,-0.046132276,-0.045861644,0.034396233,0.053699297
301,33,0.9,3,46.19883041,1282,-7977.066667,873.9577766,-437.6799497,-203.2681393,-885.2058894,-7761.119821,-5825.419263,-1061.56797,1339.780142,-1275.676601,-2450.258972,61.87453636,68.48466849,60.66649864,68.71953389,-0.030768047,-0.043966711,0.032975033,0.040331436
301,33,0.9,3,46.78362573,1218,-8006,784,-444,-219,-903,-8358,-6492,-1164,1166,-1143,-1953,61.78466519,68.4354973,60.71168269,68.72,-0.089871179,-0.049171182,0.045184051,0.000466107
301,33,0.9,3,47.36842105,1313.192819,-8008.933333,883,-465.9375,-163,-948.1578947,-10060.36862,-9728.600414,-1213.694653,1006.649929,-977.3463665,-1217.230409,61.74,68.38478088,60.73,68.71261719,-0.044665185,-0.050716427,0.018317313,-0.007382813
301,33,0.9,3,47.95321637,1496,-8010,982,-483,-107,-981,-13121.36469,-16308.03547,-1241.680807,850.5810646,-768.69176,-196.7742099,61.74,68.33405046,60.73,68.64738281,0,-0.050730415,0,-0.065234375
301,33,0.9,3,48.5380117,1717.976205,-7998.651899,892.6839888,-482.7768139,-139.6855062,-977.5813953,-16543.17646,-23896.77031,-1266.819635,672.387235,-518.9639702,850.8971934,61.74,68.28321911,60.7437641,68.64,0,-0.050831352,0.013764097,-0.007382812
301,33,0.9,3,49.12280702,1970,-7966,678,-482,-192,-967,-19327.99215,-30161.2701,-1307.972308,446.6622703,-230.090787,1668.312398,61.74,68.25,60.79,68.64,0,-0.033219108,0.046235903,0
301,33,0.9,3,49.70760234,2204,-7796,156,-443,-229,-879,-20478,-32768,-1384,148,96,1998,61.74,68.25,60.87464406,68.64,0,0,0.084644064,0
301,33,0.9,3,50.29239766,2151,-7958,285.2467363,-385.452046,-247.7151972,-819.4208895,-15215.877,-14987,-3416.938065,-553.2038713,638.4634774,1966.384965,61.74494912,68.23990398,60.93910542,68.64,0.004949117,-0.010096022,0.064461355,0
301,33,0.9,3,50.87719298,2098,-8120,522,-349,-256,-764,-8066,2794,-5400,-1271,1067,1883,61.78324784,68.18009602,60.97572324,68.64,0.038298719,-0.059807956,0.036617822,0
301,33,0.9,3,51.4619883,2116,-8044,772,-372,-236,-696,-5217.321716,-3286,-3379,-1621.69604,1162.050771,1393.924475,61.83104024,68.17,60.98,68.6653125,0.047792405,-0.010096022,0.004276759,0.0253125
301,33,0.9,3,52.04678363,2337.327966,-7925.977186,1021.865819,-403.511959,-250.3562992,-612.7079169,-2640,-9366,-1358,-1784,1199,844,61.87,68.17,60.98,68.72,0.038959759,0,0,0.0546875
301,33,0.9,3,52.63157895,2848,-7850,1302,-423,-287,-494,1178,-9180,-1614,-1608,1055,689,61.87,68.17,60.98,68.72,0,0,0,0
301,33,0.9,3,53.21637427,4154,-8860,1678,-415,-398,-247,1016.073615,-9730,2.230982853,-1056.443932,281.6647652,1252.901639,61.86019744,68.17,60.98061603,68.71850594,-0.009802565,0,0.000616033,-0.001494058
301,33,0.9,3,53.80116959,3457.023019,-10292.27485,2029.190976,-543.9172078,-454.777735,103.0925638,526,-10280,2136,-569,-380,2012,61.80577041,68.17,60.9867644,68.70293957,-0.05442703,0,0.006148363,-0.015566367
301,33,0.9,3,54.38596491,2206,-11188,2220,-724,-480,322,-2938,-5862,2898,-494,157,2306,61.8,68.17,60.99758089,68.67351258,-0.005770405,0,0.01081649,-0.029426999
301,33,0.9,3,54.97076023,643.976981,-10902,1456.492726,-826.0827922,-388,309.1830986,-6085.831555,-5996.163636,1291.444332,-895.8728381,649.2640984,1918.364851,61.8,68.17,61.01067159,68.63402634,0,0,0.013090706,-0.039486238
301,33,0.9,3,55.55555556,-364,-10616,538,-877,-296,282,-7780,-6238,-544,-1423,915,1288,61.8,68.17,61.0236426,68.58828225,0,0,0.01297101,-0.045744085
301,33,0.9,3,56.14035088,-132,-11071.14333,270.5072745,-743.9021739,-340.8913043,229.2811871,-6255.309284,-6434.750043,-887.9094488,-1657.127162,902.6971086,702.635149,61.8,68.17,61.03410001,68.54008171,0,0,0.010457403,-0.04820054
301,33,0.9,3,56.7251462,100,-11764,158,-567,-436,180,-4110,-6742,-1072,-1766,874,360,61.8,68.17,61.03964989,68.49322611,0,0,0.005549885,-0.046855602
301,33,0.9,3,57.30994152,98,-12182,564,-502,-590,165,-3124,-7794,-1172,-1529,811,442,61.8,68.17,61.04,68.44365397,0,0,0.00035011,-0.049572136
301,33,0.9,3,57.89473684,-749.8621931,-12567.47909,555.2496766,-446.409135,-574.5,104.2413258,-3567.272915,-7630.59447,-921.6380721,-1295.338925,561.8194645,482.3118393,61.8,68.17,61.04,68.39664582,0,0,0,-0.047008156
301,33,0.9,3,58.47953216,-1740,-12776,526,-368,-559,-14,-4572,-7322,-486,-1166,359,500,61.8,68.17,61.04,68.36346193,0,0,0,-0.033183888
301,33,0.9,3,59.06432749,-1926,-12668,-30,-130,-698,-262,-6580,-6966,-90,-1180,499,159,61.8,68.17,61.04,68.3358751,0,0,0,-0.027586834
301,33,0.9,3,59.64912281,-2418.182101,-12807,342.2274882,-77.66932271,-791.5576923,-378.1410379,-5672.552729,-7232,-501.4265669,-1112.618263,502.1052632,-126.0621203,61.8,68.17,61.04,68.32095141,0,0,0,-0.014923686
301,33,0.9,3,60.23391813,-2786,-12946,922,-59,-837,-488,-4518,-7498,-1180,-974,503,-317,61.8,68.20253906,61.04,68.32,0,0.032539063,0,-0.000951411
301,33,0.9,3,60.81871345,-2529.312405,-12832,1393.772512,-110.5461285,-792.7215281,-676.6432037,-4069.447271,-7398,-1837.573433,-763.7887133,397.8768577,-399.3961579,61.80069815,68.25,61.04069815,68.32,0.000698148,0.047460937,0.000698148,0
301,33,0.9,3,61.40350877,-1834,-12718,1658,-212,-696,-929,-3868,-7298,-2228,-512,235,-440,61.84999593,68.25,61.08999593,68.32,0.049297781,0,0.049297781,0
301,33,0.9,3,61.98830409,860,-13676,1146,-344,-524,-1277,-3921.471338,-7395,-1927.214464,-281.6205462,124.6201572,-448.1267243,61.87,68.25,61.10019744,68.33120293,0.020004071,0,0.010201506,0.011202931
301,33,0.9,3,62.57309942,2046.708649,-14022.35608,1198.547754,-472.0910869,-280.6036505,-1804.086647,-4014,-7492,-1568,-71,32,-456,61.87,68.25,61.04577041,68.39340525,0,0,-0.05442703,0.06220232
301,33,0.9,3,63.15789474,2871.274472,-14238.60087,1345.794012,-601.9420772,20.72051687,-2471.593275,-4090.864762,-7448.37931,-1467.785536,97.70584089,-37.63684543,-493.8174683,61.87,68.25,61.06583147,68.4,0,0,0.020061062,0.006594749
301,33,0.9,3,63.74269006,3533.203059,-14418.54522,1572.143263,-702.572029,369.9344258,-3190.553265,-4182,-7382,-1426,251,-100,-549,61.87,68.25,61.11,68.4,0,0,0.044168532,0
301,33,0.9,3,64.32748538,4232,-14656,1862,-743,757,-3872,-4318,-7342,-1556,402,-165,-599,61.83510074,68.25,61.11,68.4,-0.03489926,0,0,0
301,33,0.9,3,64.9122807,5169.933245,-15089.37007,2761.102994,-573.5,1364.661345,-4622.248423,-4494.650718,-7312.666667,-1242.507304,549.9527528,-226.1098485,-693.2716797,61.76881579,68.2375,61.1019959,68.4,-0.066284951,-0.0125,-0.008004098,0
301,33,0.9,3,65.49707602,5716,-15374,3502,-404,1771,-5114,-4602,-7298,-742,656,-269,-815,61.68394737,68.1734375,61.04899684,68.4,-0.084868421,-0.0640625,-0.05299906,0
301,33,0.9,3,66.08187135,5377,-13437.68011,3017.378649,-563.5,1395.213933,-5207.010219,-4578,-7301,-302.4926959,702.3221884,-286.2651515,-943.2144731,61.68,68.17,61.01325345,68.4,-0.003947368,-0.0034375,-0.035743395,0
301,33,0.9,3,66.66666667,5038,-11302,2234,-723,721,-5242,-4554,-7304,-50,727,-297,-1088,61.68033102,68.17,60.97463464,68.39944528,0.000331023,0,-0.038618805,-0.000554719
301,33,0.9,3,67.25146199,5211,-11037.67244,1519.621351,-672.5,0.376675362,-5219.75082,-4712,-7284,-80,735,-304,-1259,61.71072086,68.17,60.88784449,68.35389538,0.030389836,0,-0.086790149,-0.045549902
301,33,0.9,3,67.83625731,5384,-10860,1104,-622,-662,-5170,-4694,-7232,12,736,-298,-1396,61.76950197,68.18120293,60.8684022,68.30317728,0.058781107,0.011202931,-0.019442296,-0.050718097
301,33,0.9,3,68.42105263,5065.16434,-10664.22455,1480,-663.828169,-1120.507941,-5076.07309,-4550.182993,-7292.705,178.0677328,733.5,-284.6995185,-1545.439537,61.86138923,68.24340525,60.91505394,68.263053,0.091887259,0.06220232,0.04665174,-0.040124281
301,33,0.9,3,69.00584795,4550,-10400,1856,-746,-1398,-4937,-4298,-7374,290,731,-272,-1680,61.87,68.25,60.92,68.20744863,0.008610775,0.006594749,0.004946061,-0.055604372
301,33,0.9,3,69.59064327,4194.989506,-9660.328656,1565.771502,-861.289478,-1498.082668,-4764.195465,-3964.032759,-7404.555274,230.5375723,732.3380282,-265.8285714,-1781.083761,61.87,68.25132875,60.92067383,68.17,0,0.001328752,0.000673828,-0.03744863
301,33,0.9,3,70.1754386,3808,-8694,1046,-977,-1539,-4551,-3642,-7432,128,736,-263,-1858,61.87,68.35085862,60.96608398,68.17,0,0.099529868,0.045410156,0
301,33,0.9,3,70.76023392,3248,-7906,532,-1043,-1481,-4289,-3460.704499,-7484.739726,14.46242775,760.2759945,-274.7021277,-1909.940681,61.87,68.42397443,60.98,68.16113058,0,0.073115812,0.013916016,-0.008869418
301,33,0.9,3,71.34502924,2758.007207,-7467.251001,158.3020833,-1026.309783,-1286.923014,-4043.126903,-3304,-7520,-56,802,-288,-1951,61.87,68.46216493,60.98,68.10884386,0,0.038190495,0,-0.052286723
301,33,0.9,3,71.92982456,2406,-7120,-28,-1006,-1007,-3797,-3126,-7474,-34,849,-290,-1986,61.87,68.59296809,60.92262339,68.02785936,0,0.13080316,-0.05737661,-0.080984495
301,33,0.9,4,72.51461988,2242.524825,-6793.979916,74,-1001.646739,-723.0365901,-3543.712496,-3140,-7478,40,880,-298,-2003,61.87051243,68.72,60.77833305,67.92034272,0.000512434,0.127031914,-0.144290344,-0.107516645
301,33,0.9,4,73.0994152,2122,-6450,176,-997,-436,-3267,-3088.178823,-7508.436197,261.5752351,905.7736992,-280.5,-2053.874573,61.90957442,68.72,60.65988473,67.82588533,0.039061988,0,-0.118448315,-0.094457392
301,33,0.9,4,73.68421053,2005.960317,-5972.026703,158.5260492,-974.2480237,-158.9743539,-2918.742298,-2972,-7548,432,928,-263,-2093,61.94411574,68.73282312,60.57320461,67.73242165,0.034541319,0.012823122,-0.086680121,-0.09346368
301,33,0.9,4,74.26900585,1894,-5472,114,-937,59,-2565,-2660.33922,-7568.897217,398.2962963,950.5249597,-263.2592593,-2072.967011,61.97175462,68.81708935,60.50763979,67.64340952,0.027638878,0.084266232,-0.065564824,-0.08901213
301,33,0.9,4,74.85380117,1772,-5062,-20,-892,170,-2277,-2215.377524,-7585.670831,335.7037037,971.0402576,-263.7407407,-2030.045133,61.99270722,68.93880725,60.3736402,67.58914159,0.0209526,0.121717891,-0.133999583,-0.054267931
301,33,0.9,4,75.43859649,1921.401374,-4802.462244,-129.9328065,-823.6154805,219.121567,-1990.738239,-1986,-7604,302,980,-264,-1990,62,69.04946527,60.23035345,67.54538167,0.007292781,0.110658029,-0.143286757,-0.043759911
301,33,0.9,4,76.02339181,2208,-4576,-216,-723,240,-1711,-1982.978273,-7622.624204,528.7669443,971.3837322,-256.4327413,-1965.238856,62,69.14595742,60.14122202,67.50220819,0,0.096492148,-0.089131427,-0.043173489
301,33,0.9,4,76.60818713,2554,-4324,-270,-537,121,-1446,-1981.705707,-7643.248408,991.9783331,947.6563533,-237.0877048,-1942.712078,62,69.23370369,60.12,67.4373072,0,0.087746263,-0.02122202,-0.064900981
301,33,0.9,4,77.19298246,2741.296512,-3931.866112,-205.6747911,-414.6257474,37.2769499,-1123.821375,-1978,-7676,1366,912,-211,-1910,62,69.31555707,60.12,67.33505636,0,0.08185338,0,-0.102250843
301,33,0.9,4,77.77777778,2826,-3516,-128,-312,-4,-760,-1696,-7768,1540,819,-164,-1839,62,69.38973778,60.12,67.27599762,0,0.074180716,0,-0.059058744
301,33,0.9,4,78.3625731,2738.133206,-3178.116088,-103.6067201,-207.9820564,3.653132033,-353.66756,-1472.31435,-7793.953256,1481,734.5143265,-150.0169931,-1770.76559,62.00229595,69.4518606,60.1163851,67.23144822,0.00229595,0.06212282,-0.003614899,-0.044549402
301,33,0.9,4,78.94736842,2526.188549,-2865.04042,-84.65041783,-107.1831349,23.82501875,89.9730772,-1316,-7818,1422,665,-140,-1702,62.04748219,69.50917581,60.03675962,67.19390036,0.045186241,0.057315209,-0.079625483,-0.037547853
301,33,0.9,4,79.53216374,2267.649617,-2577.444542,-72.36890669,-12.54264585,52.3343961,542.1271758,-1246,-7884,1428,620,-127,-1629,62.06,69.52,59.98064319,67.13387599,0.01251781,0.010824189,-0.056116426,-0.060024374
301,33,0.9,4,80.11695906,2040,-2316,-68,73,85,974,-950,-7956,1410,547,-87,-1498,62.06,69.52,59.94864645,67.0383132,0,0,-0.031996743,-0.095562793
301,33,0.9,4,80.70175439,1839.280796,-2058.073466,-126.7524752,143.0907946,127.8775073,1382.835253,-832,-7892,1296,517,-72,-1402,62.09191533,69.48352534,59.88446834,66.94995022,0.031915327,-0.036474659,-0.064178105,-0.088362974
301,33,0.9,4,81.28654971,1682,-1880,-206,214,196,1767,-647.2435065,-7929.506024,1160.186747,491.0106952,-63.25643424,-1260.311849,62.13,69.44,59.8150346,66.86087224,0.038084673,-0.043525341,-0.069433748,-0.089077979
301,33,0.9,4,81.87134503,1609.132344,-1799.730863,-245.9955996,302.790324,341.756776,2109.440768,-528,-7980,1080,463,-55,-1106,62.13,69.44,59.76867076,66.76717719,0,0,-0.04636384,-0.093695057
301,33,0.9,4,82.45614035,1558.598209,-1743.309876,-277.3311331,403.5912642,565.8424853,2430.464028,-535.2175738,-8004.451105,1155.92,426.6440327,-41.17865031,-966.3372305,62.13981591,69.42144531,59.76,66.67254354,0.009815915,-0.018554688,-0.008670755,-0.094633641
301,33,0.9,4,83.04093567,1484,-1722,-290,513,800,2759,-553.5727213,-8025.54223,1336.96,384.0493174,-23.0009816,-828.1067164,62.18597154,69.36089844,59.76,66.57889926,0.046155629,-0.060546875,0,-0.093644281
301,33,0.9,4,83.62573099,1263.364692,-1797.703704,-248.5185185,639.9212203,1027.777767,3123.374919,-578.119082,-8042.807802,1553.04,337.0325858,-4.73398773,-695.4075872,62.23358785,69.42567863,59.76,66.4887524,0.047616304,0.06478019,0,-0.090146864
301,33,0.9,4,84.21052632,960.5712349,-1938.296296,-171.4814815,778.0124227,1267.261507,3495.792682,-603.9102951,-8055.78225,1734.08,287.4105694,9.355337423,-572.3389719,62.26,69.52649272,59.75991302,66.41403037,0.026412153,0.100814097,-8.70E-05,-0.074722027
301,33,0.9,4,84.79532164,808,-2014,-130,901,1502,3821,-626,-8064,1810,237,15,-463,62.26,69.58828277,59.75068107,66.36237384,0,0.06179005,-0.009231955,-0.051656531
301,33,0.9,4,85.38011696,936.465441,-1908.244468,-179,999.6981624,1739.732963,4087.136067,-644,-8068,1774,183,13,-374,62.26738894,69.6,59.73042983,66.31987824,0.007388936,0.011717227,-0.020251239,-0.042495606
301,33,0.9,4,85.96491228,1234,-1756,-228,1086,1944,4303,-650.9724576,-8073.570652,1654.417899,133.2131768,15.12276786,-268.8206819,62.31001074,69.6,59.70513737,66.27874815,0.042621804,0,-0.025292459,-0.041130086
301,33,0.9,4,86.5497076,1872,-1680,-174,1161,2075,4456,-654.5932203,-8080.173913,1458.260355,85.06847134,20.66071429,-153.2892914,62.37911923,69.64,59.66489731,66.23516795,0.06910849,0.04,-0.040240059,-0.043580197
301,33,0.9,4,87.13450292,2834,-1796,-12,1236,2188,4599,-658.9173729,-8085.690217,1274.972633,41.88953025,28.36830357,-42.11325528,62.46613499,69.68,59.64,66.18988083,0.087015755,0.04,-0.02489731,-0.045287127
301,33,0.9,4,87.71929825,3112,-2204,240,1275,2114,4678,-668,-8088,1194,7,37,50,62.54772321,69.68,59.64,66.13198514,0.081588223,0,0,-0.057895685
301,33,0.9,4,88.30409357,3714.085785,-2622.64438,474.9473773,1336.888686,1914.223601,4750.701342,-811.2033898,-8086.60396,1318,-16.20808114,46.83430838,113.7834837,62.60369168,69.68,59.62748219,66.12,0.05596847,0,-0.01251781,-0.011985142
301,33,0.9,4,88.88888889,4492,-3050,678,1377,1615,4790,-948,-8082,1442,-40,64,178,62.64206001,69.68,59.58229595,66.12,0.03836833,0,-0.045186241,0
301,33,0.9,4,89.47368421,5424.70355,-3561.70298,862.4710016,1364.76289,1215.352924,4771.198685,-910,-8010,1320,-81,120,274,62.68089078,69.6925,59.58,66.09375,0.038830776,0.0125,-0.00229595,-0.02625
301,33,0.9,4,90.05847953,6392.018442,-4080.546598,1024.457723,1332.303558,743.4061008,4720.175147,-970,-8014,1264,-97,104,326,62.71807547,69.72746094,59.58,66.04029297,0.037184689,0.034960938,0,-0.053457031
301,33,0.9,4,90.64327485,6838,-4378,1094,1286,370,4645,-1129.399846,-7995.851852,1269.263318,-118.276483,83.48799553,386.9178818,62.76020024,69.7565625,59.58,65.98765625,0.042124768,0.029101562,0,-0.052636719
301,33,0.9,4,91.22807018,6566,-4450,926,1186,157,4463,-1340.588812,-7962.148148,1283.85997,-144.5307438,62.5773311,453.5028433,62.81971807,69.75693873,59.56444444,65.98,0.059517825,0.000376234,-0.015555556,-0.00765625
301,33,0.9,4,91.8128655,5846,-4848,124,1088,135,4028,-1446,-7944,1306,-177,53,522,62.91278625,69.7413188,59.52205761,65.98,0.093068188,-0.015619935,-0.042386831,0
301,33,0.9,4,92.39766082,5872.605284,-5174.714347,-415.2417125,1036.803023,232.8846695,3618.866254,-1183.62963,-7978.740741,1419.917808,-226.4736779,78.66666667,586.9790199,63.01853104,69.71882368,59.52,65.98,0.105744786,-0.022495119,-0.002057613,0
301,33,0.9,4,92.98245614,5944.543902,-5471.227934,-842.2875229,999.2949358,422.1026723,3223.225262,-696.3703704,-8043.259259,1604.958904,-288.8434715,126.3333333,654.0458446,63.11282242,69.69669041,59.52,65.98,0.094291385,-0.022133267,0,0
301,33,0.9,4,93.56725146,6050,-5782,-1016,948,546,2831,-434,-8078,1702,-343,152,736,63.17153041,69.68215603,59.52,65.98,0.058707984,-0.01453438,0,0
301,33,0.9,4,94.15204678,6414.569055,-6098.552201,-734.9559215,859.0387942,579.7547468,2447.900294,-680.9677419,-8013.740458,1415,-383.5225897,102.5,873.1397665,63.18,69.69855469,59.52,65.97566603,0.008469592,0.016398654,0,-0.004333973
301,33,0.9,4,94.73684211,6720,-6490,-222,728,594,2052,-1130,-7940,1128,-415,53,994,63.18,69.75910156,59.52,65.94975958,0,0.060546875,0,-0.025906447
301,33,0.9,4,95.32163743,6668,-7170,314,511,427,1605,-1594,-7928,1166,-435,111,1037,63.21808467,69.76,59.52,65.920347,0.038084673,0.000898437,0,-0.029412583
301,33,0.9,4,95.90643275,6650,-7500,576,362,269,1285,-1671.786693,-7945,1247.922311,-465.1047847,144.5190409,1052.797705,63.25,69.75693873,59.52,65.91267861,0.031915327,-0.003061266,0,-0.007668388
301,33,0.9,4,96.49122807,6615.587558,-7221,610.6582115,153.3614579,57.53316973,859.0675238,-1734,-7962,1306,-498,160,1064,63.25,69.69669041,59.52,65.96539589,0,-0.060248321,0,0.052717281
301,33,0.9,4,97.07602339,6592,-6942,622,-45,-211,477,-1892,-7874,1270,-526,119,1076,63.23376465,69.68,59.52,65.98,-0.016235352,-0.016690413,0,0.014604112
301,33,0.9,4,97.66081871,6688,-7092.336079,439,-175.3168794,-588.7057051,243.9267112,-2226,-7904,960,-528,119,1039,63.18078613,69.68,59.52,65.98,-0.052978516,0,0,0
301,33,0.9,4,98.24561404,6784,-7344,256,-279,-1014,83,-2277.501099,-7977.818182,802.0690608,-516,160.5,973.6409368,63.18,69.71202465,59.52,66.01808467,-0.000786133,0.032024654,0,0.038084673
301,33,0.9,4,98.83040936,5850,-7548,340,-362,-1405,-9,-2316,-8032,732,-504,202,897,63.18,69.77172122,59.52,66.04699219,0,0.059696567,0,0.028907514
301,33,0.9,4,99.41520468,4585.208569,-7345,304,-443.1843122,-1486.311175,-97.6337761,-2384.646499,-8030.641092,758.3529412,-504.3735602,191.3703704,835.2036837,63.18,69.83978437,59.52,65.9909375,0,0.068063153,0,-0.056054688
301,33,0.9,4,100,3806,-7142,268,-488,-1515,-243,-2479.969714,-8026.171073,827.372549,-505.6360092,171.6296296,774.4525162,63.18,69.82428048,59.52,65.98,0,-0.015503893,0,-0.0109375
301,33,0.9,1,0,4419,-19955,4532,-4.296680498,-938.5,-1629.779655,-2618,-8018,924,-508,161,693,63.18,69.76089762,59.52,65.98,0,-0.063382862,0,0
301,33,0.9,1,0.617283951,5032,-32768,8796,997,-362,-2909,-2920,-7950,1120,-534,218,546,63.14191533,69.76,59.52,65.98,-0.038084673,-0.000897619,0,0
301,33,0.9,1,1.234567901,-4390,7276,1412,2509,-652,-1633,-2889.144351,-7973.230769,1109.163807,-585.7046772,217.5,413.9177625,63.11,69.76,59.52,65.98,-0.031915327,0,0,0
301,33,0.9,1,1.851851852,-4240.032675,6413.632653,1673.6793,2359.571815,-616.6034985,-1591.866877,-2822,-8014,1074,-636,217,311,63.11,69.76,59.52,65.98,0,0,0,0
301,33,0.9,1,2.469135802,-3815.850413,4189.632653,2348.536443,1972.75639,-525.3177843,-1568.738788,-2704,-8052,622,-659,219,254,63.11,69.76,59.50285365,65.98,0,0,-0.017146346,0
301,33,0.9,1,3.086419753,-3156.032784,1148.653061,3271.300292,1440.75742,-400.4985423,-1557.010767,-2898,-8078,46,-618,160,118,63.11,69.76,59.46059841,65.98,0,0,-0.042255241,0
301,33,0.9,1,3.703703704,-2299.159359,-2164.653061,4276.699708,855.7786013,-264.5014577,-1550.077845,-2912,-7534,114,-598,300,6,63.11,69.76,59.46,65.98,0,0,-0.000598412,0
301,33,0.9,1,4.320987654,-1283.809706,-5205.632653,5199.463557,310.0236281,-139.6822157,-1541.335055,-2768,-9290,642,-567,545,-193,63.11,69.7565625,59.46,65.98,0,-0.0034375,0,0
301,33,0.9,1,4.938271605,-148.5633967,-7429.632653,5874.3207,-104.3038041,-48.39650146,-1524.177429,-2431.150082,-9675.878222,590.832,-538.4431373,539.8,-264.1207044,63.11,69.6925,59.46,65.98,0,-0.0640625,0,0
301,33,0.9,1,5.555555556,1068,-8292,6136,-295,-13,-1492,-1887.892841,-9901.224965,468.816,-509.0235294,527.4,-320.2457925,63.11,69.68,59.46,65.98,0,-0.0125,0,0
301,33,0.9,1,6.172839506,3487.090521,-8094.655372,2824.799162,-337.0365032,-81.5,-1366.240264,-1231.06056,-10049.6326,323.184,-482.8823529,512.6,-360.9105283,63.11,69.68,59.46,65.98,0,0,0,0
301,33,0.9,1,6.790123457,5284,-7690,-1008,-355,-150,-1167,-553.485519,-10204.69349,201.168,-464.1607843,500.2,-385.6501761,63.0744043,69.63253906,59.46,65.93847168,-0.035595703,-0.047460938,0,-0.04152832
301,33,0.9,1,7.407407407,5210,-7096,-1674,-166,-144,-950,52,-10450,150,-457,495,-394,63.05,69.6,59.46,65.91,-0.024404297,-0.032539062,0,-0.02847168
301,33,0.9,1,8.024691358,4385.010549,-7236.632765,-875.8854749,15.46511827,-95.26786357,-775.1919972,664.5418651,-10917.24381,312.0579716,-487.2640357,495.6117647,-327.4428108,63.05,69.6,59.46,65.91,0,0,0,0
301,33,0.9,1,8.641975309,3622,-7468,526,115,-20,-646,1346.469598,-11571.13928,703.9339149,-562.8721071,497.6352941,-159.2484324,63.05,69.58378384,59.46,65.91,0,-0.016216162,0,0
301,33,0.9,1,9.259259259,3896,-7646,1836,27,44,-577,1979.726399,-12244.81286,1184.180872,-661.0481606,501.3529412,63.36735135,63.05,69.52509405,59.46,65.91,0,-0.058689788,0,0
301,33,0.9,1,9.87654321,3880.6,-7642.36,1775.52,27.3366491,42.292,-476.4072891,2446.255466,-12771.39095,1611.351887,-759.0161428,507.0470588,293.1887568,63.05,69.46418423,59.46,65.91,0,-0.060909817,0,0
301,33,0.9,1,10.49382716,3838.8,-7632.48,1611.36,28.37475237,37.656,-350.305825,2628,-12984,1844,-834,515,483,63.05,69.44,59.46,65.91,0,-0.024184232,0,0
301,33,0.9,1,11.11111111,3777.2,-7617.92,1369.44,30.15654373,30.824,-203.9941162,2234,-12530,1904,-882,567,626,63.05,69.44,59.46,65.91,0,0,0,0
301,33,0.9,1,11.72839506,3702.4,-7600.24,1075.68,32.72425711,22.528,-42.77067089,876.2717964,-12585.77599,1772.752,-1008.085119,627.9332566,907.7098265,63.05,69.4171382,59.47714635,65.8871382,0,-0.022861795,0.017146346,-0.022861795
301,33,0.9,1,12.34567901,3621,-7581,756,36.12012645,13.5,128.0660025,-1537.224229,-12747.64797,1459.776,-1213.255759,697.5899136,1334.357155,63.05,69.36079788,59.51940159,65.83079788,0,-0.056340322,0.042255241,-0.056340322
301,33,0.9,1,12.96296296,3539.6,-7561.76,436.32,40.38638567,4.472,303.2173957,-4226.656153,-13007.43195,1086.224,-1435.983839,763.1799424,1873.249571,63.05,69.37460556,59.52,65.83,0,0.013807677,0.000598412,-0.000797883
301,33,0.9,1,13.58024691,3464.8,-7544.08,142.56,45.5652687,-3.824,477.3850004,-6412.192051,-13356.94395,773.248,-1614.74128,811.9133141,2491.694658,63.05,69.40902134,59.52,65.83,0,0.034415783,0,0
301,33,0.9,1,14.19753086,3403.2,-7529.52,-99.36,51.69900948,-10.656,645.2703082,-7314,-13788,642,-1688,831,3157,63.05,69.43675877,59.52,65.83,0,0.027737429,0,0
301,33,0.9,1,14.81481481,3361.4,-7519.64,-263.52,58.82984194,-15.292,801.5748109,-7139.889344,-15239.27502,833,-1587.5,606,4235.4595,63.04721792,69.43682048,59.52,65.83,-0.00278208,6.17E-05,0,0
301,33,0.9,1,15.43209877,3346,-7516,-324,67,-17,941,-6824,-16456,1024,-1487,381,4975,63.03308352,69.42066688,59.52,65.83,-0.0141344,-0.0161536,0,0
301,33,0.9,1,16.04938272,3445.6875,-7520.700566,-223.8043274,110.4470795,5.65625,1062.722785,-6540.982898,-15605.27391,899.0306992,-1528.09375,745.6843537,4965.771586,63.01290112,69.39760128,59.52,65.81539589,-0.0201824,-0.0230656,0,-0.014604112
301,33,0.9,1,16.66666667,3665,-7533.534843,10.68846023,198.7383131,55.5,1175.124732,-6235.178437,-13720.8971,608.7485311,-1618.5,1605.824943,4941.47423,62.99339072,69.37530368,59.52,65.78583147,-0.0195104,-0.0222976,0,-0.029564421
301,33,0.9,1,17.28395062,3884.3125,-7552.601699,280.3370178,294.9103901,105.34375,1286.714312,-5870.784759,-11804.57174,280.0920975,-1708.90625,2610.553061,4907.189759,62.98127232,69.36145408,59.52,65.76267861,-0.0121184,-0.0138496,0,-0.02315286
301,33,0.9,1,17.90123457,3984,-7576,486,362,128,1406,-5412,-10858,40,-1750,3409,4868,62.98,69.36,59.52,65.76,-0.00127232,-0.00145408,0,-0.002678608
301,33,0.9,1,18.51851852,3779.019194,-7635.232578,602.2903683,401.5568182,122,1548.912291,-4606.578633,-10783.08541,-84.22235614,-1648.687112,4040.087528,4811.648494,62.98,69.36,59.52,65.76,0,0,0,0
301,33,0.9,1,19.13580247,3464,-7682,712,421,116,1676,-3758,-10710,-196,-1492,4382,4736,62.9770391,69.35104,59.52,65.76324972,-0.002960902,-0.00896,0,0.003249721
301,33,0.9,1,19.75308642,3268,-7626,854,418,117,1752,-3242.465305,-10366.06109,-316.9463277,-1390.855268,4369.779792,4647.733124,62.96858346,69.32672,59.52,65.77245405,-0.008455639,-0.02432,0,0.009204334
301,33,0.9,1,20.37037037,2977.965704,-7677.333333,999.8674888,410.7431547,109.0036843,1823.879721,-2821.749798,-9738.212727,-447.7097857,-1299.987279,4334.004028,4544.938984,62.95527368,69.29088,59.52,65.78679576,-0.013309774,-0.03584,0,0.014341707
301,33,0.9,1,20.98765432,2645.999042,-7772.666667,1138.679776,398.3954004,91.45181307,1891.321367,-2372,-9060,-626,-1206,4276,4435,62.93775038,69.24736,59.52,65.8054576,-0.017523308,-0.04352,0,0.018661839
301,33,0.9,1,21.60493827,2400,-7824,1222,382,74,1943,-1739.090389,-8313.141644,-1059.655867,-1101.019519,3982.133439,4322.354791,62.91665414,69.2,59.52,65.82762233,-0.021096241,-0.04736,0,0.02216473
301,33,0.9,1,22.22222222,2265.13919,-7820.888889,1258.862434,350.3684699,60.02567962,1982.941305,-1270,-7638,-1386,-997,3488,4190,62.89262556,69.15264,59.52,65.86934615,-0.024028571,-0.04736,0,0.041723818
301,33,0.9,1,22.83950617,2168.554609,-7813.111111,1290.232804,298.3188402,46.32650287,2021.09376,-1105.856718,-7190.367266,-1380.14516,-899.5997998,2937.553514,4027.598011,62.86630526,69.10912,59.52,65.92635347,-0.026320301,-0.04352,0,0.057007316
301,33,0.9,1,23.45679012,2091.097329,-7803,1315.571429,235.9041447,32.68840814,2055.01661,-969.7810439,-6804.081643,-1362.686735,-804.0620414,2266.806115,3841.451095,62.83833383,69.07328,59.52,65.98052668,-0.027971429,-0.03584,0,0.054173212
301,33,0.9,2,24.07407407,2013.61842,-7792.888889,1334.338624,173.177417,18.89733383,2082.269102,-862.5652558,-6467.722617,-1333.783865,-711.1099535,1539.017432,3631.738545,62.80935188,69.04896,59.52,66.04177366,-0.028981955,-0.02432,0,0.061246979
301,33,0.9,2,24.69135802,1916.968953,-7785.111111,1345.994709,120.1916908,4.73921832,2100.410483,-785.0016331,-6169.869676,-1293.595692,-621.4667649,817.4470985,3398.639651,62.78,69.04,59.52,66.12,-0.02935188,-0.00896,0,0.078226344
301,33,0.9,2,25.30864198,1782,-7782,1350,87,-10,2107,-737.8824548,-5899.102308,-1242.281356,-535.8557041,165.3547439,3142.333706,62.74006604,69.04,59.55308041,66.24475671,-0.03993396,0,0.033080415,0.124756712
301,33,0.9,2,25.92592593,1520.577918,-7797.609756,1196.59501,68.01408451,-27.69835782,2066.166667,-722,-5644,-1180,-455,-354,2863,62.69732061,69.04,59.58552281,66.39584046,-0.04274543,0,0.032442398,0.151083752
301,33,0.9,2,26.54320988,1248,-7822,926,59,-42,1995,-885.1181917,-5431.034507,-927.508632,-381.2671274,-762.2095832,2500.380132,62.6556666,69.04,59.59927299,66.56786792,-0.041654011,0,0.013750178,0.172027458
301,33,0.9,2,27.16049383,1102,-7838,670,77,-48,1930,-1246.014161,-5245.453423,-517.047366,-312.5811101,-1110.930681,2072.507701,62.65,69.03669525,59.60872237,66.75461683,-0.005666599,-0.003304745,0.009449378,0.186748907
301,33,0.9,2,27.77777778,1014.935996,-7852.828851,696.1324114,90.38181649,-46.2962963,1852.535293,-1612,-5014,-266,-243,-1382,1697,62.65,69.01998113,59.61761077,66.93670865,0,-0.016714124,0.008888405,0.182091821
301,33,0.9,2,28.39506173,948.1104208,-7866.379403,764.2459387,103.337614,-42.03703704,1767.484447,-1922,-4650,-224,-170,-1564,1426,62.65,68.99633112,59.62967803,67.09476485,0,-0.02365001,0.012067256,0.1580562
301,33,0.9,2,29.01234568,892.5636541,-7879.861726,858.9150215,114.9723618,-36.5,1676.076477,-1946,-4228,-116,-34,-1759,972,62.65,68.97390509,59.65089396,67.20986907,0,-0.02242603,0.021215932,0.115104224
301,33,0.9,2,29.62962963,839.3360754,-7894.485887,964.7140995,124.3910292,-30.96296296,1579.540402,-2186.758129,-3457.850229,-48.18475073,117.3625806,-1840.78271,580.568574,62.65,68.96086291,59.68991323,67.29299346,0,-0.013042185,0.039019268,0.083124385
301,33,0.9,2,30.24691358,779.4680641,-7911.461955,1066.217612,130.6985855,-26.7037037,1479.105237,-2442,-2808,-16,263,-1875,199,62.62416853,68.96,59.7191036,67.39336001,-0.025831468,-0.000862906,0.029190366,0.100366549
301,33,0.9,2,30.86419753,704,-7932,1148,133,-25,1376,-2504.504506,-2573.721702,-21.824,386.2019957,-1831.84,-214.7559708,62.58,68.96,59.74242114,67.51342876,-0.044168532,0,0.023317548,0.120068755
301,33,0.9,2,31.48148148,582.3567702,-7968.218844,1222.126234,124.6012375,-25.95486111,1268.401287,-2553.67757,-2404.059402,-35.712,499.0435834,-1728.92,-645.1000538,62.58,68.97758633,59.76363645,67.63798131,0,0.017586332,0.02121531,0.124552553
301,33,0.9,2,32.09876543,426.8726846,-8018.361195,1298.389986,103.0199667,-28.46296296,1154.100699,-2589.19838,-2276.136251,-52.288,605.8841732,-1606.08,-1080.366151,62.58,69.01253638,59.78560757,67.75204052,0,0.034950051,0.021971116,0.114059202
301,33,0.9,2,32.71604938,292.9522567,-8062.822948,1357.958745,73.67871256,-31.98958333,1033.749762,-2610.746127,-2167.0754,-66.176,711.0831753,-1503.16,-1508.888166,62.58,69.03813674,59.81119253,67.84062922,0,0.025600356,0.025584963,0.088588704
301,33,0.9,2,33.33333333,236,-8082,1382,42,-36,908,-2618,-2054,-72,819,-1460,-1919,62.56222732,69.01204235,59.84590127,67.89478765,-0.017772684,-0.026094392,0.034708739,0.054158427
301,33,0.9,2,33.95061728,336,-8034,1350,1,-42,771,-2431.851852,-1917.018537,-6.148148148,928.4801314,-1486.228416,-2317.314732,62.51613876,68.95735109,59.8830053,67.93383658,-0.04608856,-0.054691254,0.037104032,0.039048932
301,33,0.9,2,34.56790123,387.1811409,-8042.112,1301.776539,-23.01718684,-42.34046879,668.2671711,-2086.148148,-1791.175935,116.1481481,1037.69657,-1544.23461,-2702.2841,62.47646245,68.93228922,59.909656,67.97523917,-0.039676306,-0.025061871,0.026650698,0.041402587
301,33,0.9,2,35.18518519,430.7087835,-8061.456,1239.818607,-42.68953519,-42.47498103,579.5402703,-1900,-1736,182,1150,-1603,-3050,62.43558843,68.91073029,59.93212124,68.01779104,-0.040874018,-0.021558935,0.022465242,0.042551878
301,33,0.9,2,35.80246914,464.4458557,-8084.544,1178.172404,-58.85329013,-42.53925888,498.8797839,-1943.037037,-1737.87318,21.77777778,1263.61355,-1656.985223,-3345.288446,62.39456897,68.89397148,59.95325907,68.05524626,-0.04101946,-0.016758806,0.021137828,0.037455217
301,33,0.9,2,36.41975309,486.2552852,-8103.888,1130.884135,-72.34469671,-42.66902448,420.3461984,-2022.962963,-1744.635249,-275.7777778,1380.584553,-1711.766805,-3612.941472,62.35445634,68.88331,59.97592753,68.08135887,-0.040112635,-0.010661484,0.022668457,0.026112606
301,33,0.9,2,37.03703704,494,-8112,1112,-84,-43,338,-2066,-1758,-436,1510,-1753,-3889,62.31623299,68.88,60.00310313,68.09,-0.038223345,-0.003309996,0.027175598,0.008641134
301,33,0.9,2,37.65432099,484,-8096,1114,-93,-47,252,-1916,-2246,-174,1666,-1776,-4191,62.27748079,68.88,60.04199987,68.09,-0.038752205,0,0.038896741,0
301,33,0.9,2,38.27160494,356,-8120,1058,-95,-60,186,-2094.268183,-2441.892258,-174,1779.679511,-1910.882603,-4344.805569,62.2514222,68.87947339,60.0669466,68.09290816,-0.026058588,-0.000526615,0.024946736,0.00290816
301,33,0.9,2,38.88888889,453.4814815,-8130.007341,1140.962963,-103.7639865,-58.7037037,102.483583,-2424,-2624,-174,1838,-2085,-4435,62.23094876,68.87358789,60.07851421,68.12060736,-0.02047344,-0.005885495,0.011567606,0.0276992
301,33,0.9,2,39.50617284,634.5185185,-8136.567839,1295.037037,-121.0962789,-56.2962963,8.784953048,-2729.406922,-3068.582234,-185.1990552,1841.253654,-2186.511944,-4486.503992,62.21309556,68.86127062,60.08576492,68.16520256,-0.017853202,-0.012317266,0.007250713,0.0445952
301,33,0.9,2,40.12345679,732,-8148,1378,-143,-55,-82,-3068.491192,-3711.254666,-216.8641471,1843.419915,-2269.484714,-4528.086881,62.19940385,68.84264073,60.09365781,68.21133376,-0.013691708,-0.018629896,0.00789289,0.0461312
301,33,0.9,2,40.74074074,527.1851852,-8215.025553,1341.185185,-175.6722509,-58.0539104,-163.2575669,-3484.329866,-4292.299766,-266.0971655,1844.626218,-2347.965127,-4555.876331,62.19141489,68.81781734,60.10715195,68.24364096,-0.007988957,-0.024823385,0.013494136,0.0323072
301,33,0.9,2,41.35802469,146.8148148,-8322.068332,1272.814815,-219.7730732,-65.1078208,-241.8732552,-4020,-4552,-330,1845,-2436,-4566,62.19,68.77185223,60.14949037,68.25,-0.001414892,-0.045965116,0.042338425,0.00635904
301,33,0.9,2,41.97530864,-58,-8378,1236,-263,-73,-325,-5004.809414,-4559.002584,-543.5679265,1780.348628,-2567.373594,-4419.470588,62.19,68.65423111,60.2840385,68.25,0,-0.117621114,0.134548124,0
301,33,0.9,2,42.59259259,-27.13518194,-8361.126062,1249.185185,-301.2374797,-80.99196447,-416.0568884,-6134,-4566,-722,1661,-2650,-4142,62.19462688,68.60379291,60.33810374,68.28220843,0.004626878,-0.050438208,0.054065246,0.032208427
301,33,0.9,2,43.20987654,50.67852891,-8318.22562,1282.148148,-338.7299485,-90.20885981,-512.4265964,-7049.3149,-4827.541733,-647,1537.782537,-2487.375479,-3840.824776,62.21000407,68.57118674,60.37094678,68.37513536,0.015377193,-0.032606161,0.032843035,0.092926929
301,33,0.9,2,43.82716049,153.2700175,-8260.880734,1325,-375.7149206,-100.2843985,-612.2074429,-7928.465841,-5400.832999,-482,1394.064612,-2088.501277,-3477.081756,62.23013057,68.54619082,60.39950645,68.4610401,0.020126497,-0.024995921,0.028559675,0.085904743
301,33,0.9,2,44.44444444,258.4681689,-8200.673462,1367.851852,-412.4299104,-110.8522932,-713.4977465,-8667.383862,-6006.207764,-317,1240.56438,-1586.876436,-3074.797858,62.24867396,68.52189622,60.43594616,68.48,0.018543396,-0.0242946,0.036439705,0.018959902
301,33,0.9,2,45.0617284,344.1018681,-8149.185865,1400.814815,-449.1124321,-121.5462561,-814.3958259,-9162,-6364,-242,1088,-1116,-2658,62.25930185,68.49139402,60.4779185,68.48,0.010627888,-0.030502198,0.041972344,0
301,33,0.9,2,45.67901235,388,-8118,1414,-486,-132,-913,-9486.863204,-6464.696075,-254.0122903,935.9391395,-666.4487388,-2220.093564,62.23152832,68.44432866,60.51785456,68.51253906,-0.027773532,-0.047065361,0.039936057,0.032539063
301,33,0.9,2,46.2962963,397.0872991,-8106.206422,1271.882716,-531.0964295,-145.0528846,-1011.23973,-9736.320491,-6529.317287,-285.1356917,780.4496582,-197.788069,-1747.773259,62.19,68.39676152,60.55306311,68.55990528,-0.04152832,-0.047567147,0.035208553,0.047366217
301,33,0.9,2,46.91358025,408,-8094,1050,-560,-153,-1105,-9836,-6624,-328,627,203,-1255,62.19,68.37321918,60.58522324,68.55008768,0,-0.023542334,0.032160133,-0.0098176
301,33,0.9,2,47.5308642,617.3839827,-8057.675258,868.117284,-562.954977,-152.5,-1207.966102,-9673.065165,-6896.189149,-396.7203597,445.2117339,566.5293772,-748.3315556,62.19,68.35597511,60.61720907,68.52951808,0,-0.017244076,0.031985829,-0.0205696
