locomotion_mode,terrain_info,walk_speed_info,gait_phase,gait_percentage,left_accel_x,left_accel_y,left_accel_z,left_gyro_x,left_gyro_y,left_gyro_z,right_accel_x,right_accel_y,right_accel_z,right_gyro_x,right_gyro_y,right_gyro_z,left_hip_angle,left_knee_angle,right_hip_angle,right_knee_angle,left_hip_angle_vel,left_knee_angle_vel,right_hip_angle_vel,right_knee_angle_vel
302,-33,0.9,1,0,4552,-6110,-444,792,190,3065,-2128.232558,-7831,1154.117834,-166.5748386,14.54850746,717,62.9209375,70.2459375,59.7,66.2,-0.056054688,0.072070313,0,0
302,-33,0.9,1,0.403225806,4252,-6198,-450,727,153,3007,-2268,-7792,1222,-163,24,709,62.91,70.24132541,59.7,66.2,-0.0109375,-0.004612093,0,0
302,-33,0.9,1,0.806451613,4174.580205,-6279.388399,-468.0769231,685.1092313,134.3747987,3009.615385,-2177.777778,-7815.851852,1207.481481,-155.9565726,27.5063571,712.0346476,62.91,70.17545191,59.7,66.2,0,-0.065873492,0,0
302,-33,0.9,1,1.209677419,4146,-6376,-482,648,115,3015,-2010.222222,-7860.148148,1180.518519,-148.1594829,30.03095633,719.5137395,62.8744043,70.11368224,59.7,66.2,-0.035595703,-0.061769671,0,0
302,-33,0.9,1,1.612903226,4224,-6557.316976,-371.738,608.2660026,63.43090266,3025.384615,-1920,-7884,1166,-144,31,729,62.85,70.09,59.7,66.2,-0.024404297,-0.023682244,0,0
302,-33,0.9,1,2.016129032,4302,-6734,-200,563,15,3033,-2143.125,-7836,1239,-143.2807692,17,747.4193548,62.85,70.09,59.7,66.2,0,0,0,0
302,-33,0.9,1,2.419354839,4150.234421,-6826.070361,-60.262,499.0307908,-3.81496063,2990.725291,-2430,-7788,1312,-143,3,761,62.83376465,70.09,59.7,66.2,-0.016235352,0,0,0
302,-33,0.9,1,2.822580645,3916,-6892,18,429,-12,2928,-2539.948441,-7794,1274.691375,-147.5,31.5,724.993553,62.78078613,70.09,59.7,66.2,-0.052978516,0,0,0
302,-33,0.9,1,3.225806452,3745.492851,-6934.193357,-11.4,358.8893399,13.33695652,2887.907239,-2600,-7800,1218,-152,60,671,62.78,70.04253906,59.7,66.24152832,-0.000786133,-0.047460938,0,0.04152832
302,-33,0.9,1,3.629032258,3628,-6982,-66,306,51,2861,-2618,-7762,1184,-146,47,640,62.77422959,70.01659475,59.69505394,66.26422959,-0.005770405,-0.025944314,-0.004946061,0.022701275
302,-33,0.9,1,4.032258065,3588,-7100,-126,285,72,2851,-2514.169065,-7771,1177.163511,-142.6862121,54.5,625.3505666,62.71980256,70.07879707,59.6484022,66.20980256,-0.05442703,0.06220232,-0.04665174,-0.05442703
302,-33,0.9,1,4.435483871,3412.581375,-7180.416691,-104.6619718,280.0035211,98.75328738,2833.688401,-2388,-7780,1172,-139,62,619,62.71,70.09,59.64,66.22214844,-0.009802565,0.011202931,-0.008402198,0.012345873
302,-33,0.9,1,4.838709677,3182,-7268,-66,276,135,2812,-2358,-7778,1162,-130,56,637,62.71,70.09,59.64,66.27,0,0,0,0.047851563
302,-33,0.9,1,5.241935484,3037.733325,-7430.974786,-29.3199045,268.6153846,198.4863874,2789.137931,-2406,-7720,1134,-130,35,663,62.71,70.09,59.60214126,66.27,0,0,-0.037858742,0
302,-33,0.9,1,5.64516129,2882,-7626,16,258,277,2764,-2550,-7734,1186,-127,23,668,62.7163866,70.09,59.58,66.27659475,0.006386597,0,-0.022141258,0.006594749
302,-33,0.9,1,6.048387097,2624,-7804,82,240,353,2736,-2630,-7684,1366,-142,41,679,62.80274211,70.09,59.58,66.33879707,0.086355512,0,0,0.06220232
302,-33,0.9,1,6.451612903,2616.474845,-7856.284238,141.8279352,221.8258565,406.0724704,2713.825998,-2602,-7670,1384,-162,65,686,62.96099361,70.09,59.56101563,66.35,0.158251497,0,-0.018984375,0.011202931
302,-33,0.9,1,6.85483871,2610,-7898,174,201,444,2689,-2430.197531,-7685.037037,1293.777778,-156.8148148,60.07407407,723.8977438,63.18,70.09,59.52,66.35,0.219006395,0,-0.041015625,0
302,-33,0.9,1,7.258064516,2522.810638,-7978.2866,145.1582278,168.8811306,470.7314462,2648.952613,-2156.765432,-7712.962963,1126.222222,-147.1851852,50.92592593,788.5097732,63.33166985,70.03952168,59.52,66.35,0.151669854,-0.050478323,0,0
302,-33,0.9,1,7.661290323,2398,-8052,90,139,485,2597,-2014,-7728,1036,-142,46,839,63.37422959,70.01,59.52139745,66.35163035,0.042559741,-0.029521677,0.001397446,0.001630353
302,-33,0.9,1,8.064516129,2320,-8086,24,124,487,2532,-2064.321222,-7718.315077,1082.8,-156.858585,49.60994475,865.3765001,63.31980256,70.01,59.54059771,66.37403066,-0.05442703,0,0.019200267,0.022400312
302,-33,0.9,1,8.467741935,2314.177493,-8142.691375,56.84064665,103.0183654,483.3195067,2470.018937,-2190.723666,-7694.065231,1194.4,-192.8557549,59.02983425,886.3487451,63.31,70.01,59.56681025,66.40461196,-0.009802565,0,0.026212539,0.030581295
302,-33,0.9,1,8.870967742,2308,-8180,114,86,473,2413,-2356.365499,-7662.457846,1327.6,-237.1236323,72.14475138,904.13274,63.31,70.01,59.58,66.42,0,0,0.013189749,0.01538804
302,-33,0.9,1,9.274193548,2102,-8174,166,80,426,2365,-2524.404888,-7630.700308,1439.2,-276.7943398,86.83977901,920.94449,63.24706214,70.01,59.58,66.42,-0.062937862,0,0,0
302,-33,0.9,1,9.677419355,1943.018533,-8179,207.1344031,84.25216138,364.375259,2310.689632,-2658,-7606,1486,-299,101,939,63.15667127,70.00261719,59.58553711,66.42,-0.090390873,-0.007382812,0.005537109,0
302,-33,0.9,1,10.08064516,1806,-8184,242,93,299,2263,-2775.023091,-7592.542986,1260,-305.6666507,118.9811719,955.309897,63.07692794,69.93738281,59.63446289,66.42,-0.079743323,-0.065234375,0.048925781,0
302,-33,0.9,1,10.48387097,1692.25239,-8180.368695,277.5462836,106.1367672,236.3603861,2231.469774,-2840,-7574,1034,-311,132,977,62.97791564,69.93,59.64,66.42,-0.099012306,-0.007382812,0.005537109,0
302,-33,0.9,1,10.88709677,1588.404727,-8170.070723,309.8842529,123.9459647,175.7013507,2205.970961,-2628,-7492,1270,-318,134,1034,62.86179821,69.93,59.64,66.42,-0.116117422,0,0,0
302,-33,0.9,1,11.29032258,1456,-8154,324,141,126,2182,-2635.541407,-7497.442321,1232.666667,-332.1154121,138.7962963,1080.130171,62.72541318,69.93,59.64,66.42,-0.136385036,0,0,0
302,-33,0.9,1,11.69354839,1226.903655,-8072.335218,322.9775281,156.6168142,82.69246509,2161.097335,-2650.638369,-7509.551309,1163.333333,-351.9699547,144.9537037,1122.060342,62.63070367,69.92261719,59.64,66.42,-0.094709511,-0.007382812,0,0
302,-33,0.9,1,12.09677419,986,-8000,320,169,60,2136,-2662,-7522,1126,-372,148,1169,62.58349772,69.85738281,59.64,66.42,-0.047205946,-0.065234375,0,0
302,-33,0.9,1,12.5,817.5856441,-8050.568493,232.0224719,177.1,69.02247191,2089.473068,-2665.453527,-7535.627389,1219,-389.456771,144.5,1243.628558,62.58,69.85,59.61785874,66.42,-0.003497721,-0.007382812,-0.022141258,0
302,-33,0.9,1,12.90322581,686,-8138,146,181,92,2018,-2670,-7544,1312,-409,141,1292,62.58,69.85,59.58,66.42,0,0,-0.037858742,0
302,-33,0.9,1,13.30645161,596,-8216,214,173,161,1895,-3049.979058,-7463,1198,-433.9072488,154.191048,1284,62.53898438,69.78847656,59.58,66.42,-0.041015625,-0.061523437,0,0
302,-33,0.9,1,13.70967742,597,-8287.443782,257.9797571,148.6031008,237.150476,1786.542536,-3426,-7382,1084,-466,184,1276,62.52,69.76,59.58,66.42,-0.018984375,-0.028476563,0,0
302,-33,0.9,1,14.11290323,598,-8326,282,117,306,1694,-3084,-7450,1406,-514,243,1297,62.52,69.76,59.58,66.42,0,0,0,0
302,-33,0.9,1,14.51612903,596.443038,-8310,285.9323308,87.3030303,365.4777542,1623.665945,-3154.722826,-7378,908,-505.1509434,221,1351.348003,62.50164506,69.73947127,59.59898438,66.44214844,-0.018354936,-0.020528728,0.018984375,0.022148437
302,-33,0.9,1,14.91935484,592,-8294,290,68,397,1561,-3238,-7306,410,-486,199,1415,62.45,69.68,59.64,66.49,-0.051645064,-0.059471272,0.041015625,0.047851563
302,-33,0.9,1,15.32258065,533.8315285,-8418,324.3571429,64.53460411,387.3529412,1495.41679,-3252.17753,-7307.095238,629.924812,-441.8490566,199.5588235,1463.497637,62.4237062,69.64588889,59.64,66.49,-0.026293799,-0.034111113,0,0
302,-33,0.9,1,15.72580645,440,-8542,394,62,365,1435,-3268,-7310,878,-408,201,1496,62.40222499,69.61690525,59.64,66.49,-0.021481209,-0.028983637,0,0
302,-33,0.9,1,16.12903226,362,-8494,524,58,317,1386,-3541.099644,-7329.904762,910.0444187,-420.390625,205.8771521,1510.009901,62.39072862,69.60101984,59.64,66.49,-0.011496374,-0.015885409,0,0
302,-33,0.9,1,16.53225806,302.5836453,-8363.591284,510.480916,53,245.1741808,1334.079707,-3800,-7348,942,-447,216,1516,62.39,69.62952168,59.61785874,66.51952168,-0.000728619,0.028501836,-0.022141258,0.029521677
302,-33,0.9,1,16.93548387,236,-8232,478,50,160,1279,-3669.543307,-7318.603774,1140.981818,-489.9444372,246.0738091,1487.5,62.39,69.68,59.58,66.57,0,0.050478323,-0.037858742,0.050478323
302,-33,0.9,1,17.33870968,84.78238342,-8167.705056,360.519084,58.8362069,69.54062656,1221.560126,-3496,-7272,1398,-552,283,1459,62.39,69.6253125,59.58,66.57,0,-0.0546875,0,0
302,-33,0.9,1,17.74193548,-24,-8138,262,75,-24,1156,-3432,-7240,1542,-637,305,1487,62.38019744,69.6,59.58,66.57,-0.009802565,-0.0253125,0,0
302,-33,0.9,1,18.14516129,-22,-8140,272,92,-114,1069,-3854,-7128,1358,-727,356,1503,62.32577041,69.6,59.58,66.57,-0.05442703,0,0,0
302,-33,0.9,1,18.5483871,-40.13793103,-8246.943436,370.4601479,82.81838366,-150.744898,1015.588165,-4425.722111,-7037.07314,894.3522356,-769.0514391,372.1693548,1463.123031,62.32,69.56746094,59.58658254,66.57416592,-0.005770405,-0.032539062,0.006582536,0.004165921
302,-33,0.9,1,18.9516129,-86,-8450,514,61,-166,967,-4778,-6990,552,-790,386,1392,62.32,69.52,59.61,66.59195175,0,-0.047460938,0.023417464,0.017785833
302,-33,0.9,1,19.35483871,-220,-8698,612,10,-144,905,-4577.504425,-7008.365079,578,-795.7746479,421,1304.876969,62.32,69.52,59.63341746,66.61876752,0,0,0.023417464,0.026815761
302,-33,0.9,1,19.75806452,-246.5282774,-8872.951546,607.2400722,-74.49909747,-122.8996747,854.6240998,-4266,-7042,604,-798,446,1249,62.32,69.50523438,59.64,66.65133039,0,-0.014765625,0.006582536,0.032562871
302,-33,0.9,1,20.16129032,-272,-9012,594,-130,-93,796,-4014.495575,-7086.634921,436.0702865,-790.8732394,436.3478261,1297.5,62.32,69.37476563,59.64,66.70477817,0,-0.13046875,0,0.05344778
302,-33,0.9,1,20.56451613,-380,-9120,536,-114,-13,689,-3874,-7116,104,-775,422,1346,62.32,69.36,59.64,66.75099926,0,-0.014765625,0,0.04622109
302,-33,0.9,1,20.96774194,-375.3333333,-8951.481481,536.2039807,-97.40155945,48.45858893,605.2202881,-4192,-7040,-334,-745,414,1342,62.31940159,69.35920212,59.64,66.7945621,-0.000598412,-0.000797883,0,0.043562844
302,-33,0.9,1,21.37096774,-366.6666667,-8638.518519,536.8524059,-81.86744639,101.0236351,530.6460557,-4262,-7018,160,-688,374,1328,62.27714635,69.3028618,59.64,66.84196241,-0.042255241,-0.056340322,0,0.047400306
302,-33,0.9,1,21.77419355,-362,-8470,538,-75,143,449,-4423.721683,-6975.430475,261.3656286,-689.2598247,381,1314.567393,62.26,69.28,59.64,66.8878296,-0.017146346,-0.022861795,0,0.045867193
302,-33,0.9,1,22.17741935,-427,-8478,616.29891,-77.47058824,179.8167445,339.2405578,-4628.860841,-6924.604127,320.6828143,-692.2974272,394,1299.725572,62.26,69.28,59.64,66.9312328,0,0,0,0.0434032
302,-33,0.9,1,22.58064516,-492,-8486,702,-82,200,244,-4730,-6900,340,-696,401,1276,62.26,69.24663923,59.64,66.98424662,0,-0.033360768,0,0.053013816
302,-33,0.9,1,22.98387097,-432,-8453.90991,715.0549451,-88.02941176,202.2125,193.3472346,-4688,-6944,70,-701,401,1208,62.26,69.2,59.64,67.02,0,-0.046639232,0,0.035753385
302,-33,0.9,1,23.38709677,-372,-8382,720,-92,203,156,-4713.625917,-6835,-67.19874197,-677.7020725,391.9744898,1206.482966,62.21214844,69.2,59.64,67.02,-0.047851563,0,0,0
302,-33,0.9,1,23.79032258,-486,-8192.09009,672.3212928,-84.37244898,183.9444444,124.2438984,-4782,-6726,-196,-633,372,1205,62.19,69.19113748,59.64,67.02753794,-0.022148438,-0.008862523,0,0.007537942
302,-33,0.9,1,24.19354839,-600,-8042,596,-66,147,98,-5030,-6808,-410,-579,335,1167,62.19,69.13086402,59.64,67.08005142,0,-0.060273461,0,0.052513481
302,-33,0.9,1,24.59677419,-404,-8216,542,-21,101,77,-5015.481481,-6771.991403,-289.7037037,-543.9320058,306.069148,1130.86154,62.19,69.07265067,59.64,67.12788413,0,-0.058213347,0,0.047832705
302,-33,0.9,1,25,-430.4608295,-8408.764583,608.4601449,22.48412874,55.27432337,126.5,-4988.518519,-6701.760584,-66.2962963,-516.2371651,281.6165946,1095.969442,62.18940159,69.04,59.64,67.17434561,-0.000598412,-0.032650669,0,0.046461487
302,-33,0.9,1,25.40322581,-492,-8562,708,53,8,176,-4974,-6654,54,-497,268,1063,62.14714635,69.04,59.64,67.21498066,-0.042255241,0,0,0.04063505
302,-33,0.9,1,25.80645161,-682.5391705,-8628.957283,779.5398551,64.64163886,-44.57066221,156.7966102,-5354,-6642,-134,-486,264,1033,62.13,69.04,59.6484022,67.26147663,-0.017146346,0,0.008402198,0.046495963
302,-33,0.9,1,26.20967742,-838,-8692,818,72,-97,132,-5328.347328,-6650.5,-120.4496568,-476.806962,288.0047847,901.8050365,62.13,69.04,59.69505394,67.31532017,0,0,0.04665174,0.053843544
302,-33,0.9,1,26.61290323,-764,-8830.507157,814.4545455,78.63793103,-153.4188832,121.7033898,-5250,-6674,-82,-472,322,784,62.13,69.00746094,59.7,67.32,0,-0.032539063,0.004946061,0.004679829
302,-33,0.9,1,27.01612903,-690,-8952,806,82,-189,117,-4660,-6774,104,-516,338,773,62.13,68.96089844,59.7,67.32168457,0,-0.0465625,0,0.00168457
302,-33,0.9,1,27.41935484,-783,-8998.159509,786.3796582,74,-194.84,120.5,-4730.925373,-6859.172414,-230,-504.247549,330,778,62.13,69.02144531,59.7,67.43520996,0,0.060546875,0,0.113525391
302,-33,0.9,1,27.82258065,-876,-9018,752,66,-197,124,-4852,-6904,-564,-481,322,783,62.13,69.04,59.7,67.47,0,0.018554688,0,0.034790039
302,-33,0.9,1,28.22580645,-842,-8932,690,68,-169,123,-4942.160243,-6844.02069,-209,-448.2065794,327,777.5043103,62.13,69.04,59.7,67.47,0,0,0,0
302,-33,0.9,1,28.62903226,-883,-8854.670656,671.8691289,70.41494436,-132.6350245,116.3198702,-5062,-6748,146,-414,332,766,62.13,69.00746094,59.7,67.47,0,-0.032539063,0,0
302,-33,0.9,1,29.03225806,-924,-8764,662,75,-101,101,-5407.292264,-6662.97931,49.45934959,-390.4582919,320.2357143,750.9042101,62.13,68.96,59.7,67.47089844,0,-0.047460938,0,0.000898437
302,-33,0.9,1,29.43548387,-862,-8612,656,103,-85,56,-5728,-6614,-108,-372,305,725,62.13,68.96,59.7,67.53144531,0,0,0,0.060546875
302,-33,0.9,1,29.83870968,-781.1890335,-8453.35,657,132.79728,-103.2013802,11.9,-5800,-6848,-226,-359,300,656,62.13,68.96,59.7,67.55,0,0,0,0.018554688
302,-33,0.9,1,30.24193548,-708,-8308,658,165,-142,-16,-5244.428822,-6987.249623,60,-399,312,602.9537815,62.13,68.96,59.7,67.55,0,0,0,0
302,-33,0.9,1,30.64516129,-666,-8198,654,202,-206,-21,-4680,-7102,346,-439,324,576,62.13,68.92352534,59.67264401,67.58647466,0,-0.036474659,-0.027355994,0.036474659
302,-33,0.9,1,31.0483871,-626.6582278,-8102.555901,614.8895955,238.212881,-298.632361,-5.93,-4666.571178,-7248.312757,-54,-434.75,293.1194722,626.6952055,62.12930185,68.88,59.64,67.63,-0.000698148,-0.043525341,-0.032644006,0.043525341
302,-33,0.9,1,31.4516129,-582,-8052,564,273,-405,23,-4662,-7334,-454,-423,243,707,62.08000407,68.88,59.64,67.63,-0.049297781,0,0,0
302,-33,0.9,1,31.85483871,-516,-8170,540,305,-512,58,-4880,-6588,-436,-373,206,762,62.06,68.8675,59.64,67.6374375,-0.020004071,-0.0125,0,0.0074375
302,-33,0.9,1,32.25806452,-490,-8194,532,308,-551,85,-5326.184496,-6193.797214,-391.2968948,-357.1470588,211.1428571,744.5700637,62.06,68.8034375,59.64,67.68984635,0,-0.0640625,0,0.052408854
302,-33,0.9,1,32.66129032,-576.9455446,-8168.575718,511.9890485,290.7810475,-594.8579704,85.77488688,-5638,-6002,-314,-351,224,710,62.06,68.8,59.64,67.74933333,0,-0.0034375,0,0.059486979
302,-33,0.9,1,33.06451613,-672,-8118,478,261,-636,86,-5540,-5980,-162,-360,260,664,62.06,68.80306127,59.64,67.78,0,0.003061266,0,0.030666667
302,-33,0.9,1,33.46774194,-682.9903305,-8036.892134,405.0672433,236.7174285,-673.6842629,64.4375,-5406.354585,-6188.444444,-231.4814815,-377.569905,273.226997,667.6985585,62.06,68.86330959,59.64,67.78,0,0.060248321,0,0
302,-33,0.9,1,33.87096774,-687.7563929,-7923.848564,291.4428946,212.2039994,-711.0249004,17,-5263.446011,-6575.555556,-360.5185185,-401.652051,281.5022779,676.286006,62.06,68.88,59.64,67.79213108,0,0.016690413,0,0.012131081
302,-33,0.9,1,34.27419355,-692.6442589,-7823.380711,176.0970987,184.5885706,-739.6030876,-30.4375,-5180,-6784,-430,-425,292,686,62.06,68.88,59.64,67.85009974,0,0,0,0.057968655
302,-33,0.9,1,34.67741935,-704,-7780,98,151,-751,-52,-5156.625928,-6758.208,-418.768,-448.2498375,312.5042102,694.2954564,62.06,68.84352534,59.64,67.90176348,0,-0.036474659,0,0.051663749
302,-33,0.9,1,35.08064516,-800.411259,-7791.968,64.3232021,100.6375713,-710.4235474,-39.53921569,-5143.565174,-6696.704,-391.984,-473.9510671,341.1522365,702.5385854,62.06,68.8,59.64067383,67.93,0,-0.043525341,0.000673828,0.028236515
302,-33,0.9,1,35.48387097,-962,-7824,32,45,-632,-21,-5133.991455,-6623.296,-360.016,-497.7273781,370.6481577,712.8339861,62.06,68.8,59.68608398,67.93,0,0,0.045410156,0
302,-33,0.9,1,35.88709677,-1169.765,-8051.174857,-43.94387755,0.163738985,-541.1940997,-7.960784314,-5121.078491,-6561.792,-333.232,-515.2024594,393.6960526,727.2862579,62.04608398,68.8,59.7,67.94855469,-0.013916016,0,0.013916016,0.018554688
302,-33,0.9,1,36.29032258,-1304,-8280,-98,-43,-424,-1,-5098,-6536,-322,-522,403,748,62.00067383,68.8,59.7,68.00910156,-0.045410156,0,0,0.060546875
302,-33,0.9,1,36.69354839,-1269.301205,-8314.857143,-23,-89.95479779,-264.1919505,-59.10538117,-5005.39083,-6647,-518,-486.2276995,380.7040816,832.0763174,62,68.8,59.73,68.01,-0.000673828,0,0.03,0.000898437
302,-33,0.9,1,37.09677419,-1214,-8328,52,-134,-88,-143,-4928,-6758,-714,-424,357,933,62,68.79910156,59.76,68.01,0,-0.000898437,0.03,0
302,-33,0.9,1,37.5,-1175.198795,-8084.419355,1.475778547,-175.0250143,81.16122354,-194.346866,-5288.685579,-6400.504717,-640.2693727,-353.2723005,354.7959184,990.0601852,62,68.73855469,59.76,68.01,0,-0.060546875,0,0
302,-33,0.9,1,37.90322581,-1138,-7752,-54,-202,222,-224,-5688,-6002,-502,-309,354,1018,62,68.72,59.76,68.02669041,0,-0.018554688,0,0.016690413
302,-33,0.9,1,38.30645161,-1100,-7616,-60,-209,305,-229,-5750.314421,-5935.495283,-312.7351551,-310.0899582,422.8329682,991,62,68.72,59.76,68.08693873,0,0,0,0.060248321
302,-33,0.9,1,38.70967742,-973.3159598,-7640.938272,38.77664975,-216.6293103,356.5948276,-225.5,-5774,-5910,-172,-313,502,964,62,68.72,59.76,68.09,0,0,0,0.003061266
302,-33,0.9,1,39.11290323,-788,-7696,184,-221,381,-222,-5620,-6153.703704,-149.6552502,-346.2144002,520.0006491,980.2858684,62,68.72,59.76,68.09,0,0,0,0
302,-33,0.9,1,39.51612903,-587.6962613,-7799.496402,250.9089173,-214.5,339.580237,-234.0045455,-5334,-6606.296296,-137.5447968,-415.6686888,531.7781023,1017.238403,62,68.72,59.76,68.09,0,0,0,0
302,-33,0.9,1,39.91935484,-392,-7940,334,-208,256,-260,-5180,-6850,-122,-487,536,1057,61.98185185,68.69925926,59.76,68.09,-0.018148148,-0.020740741,0,0
302,-33,0.9,1,40.32258065,-246,-8086,604,-214,139,-305,-5254,-6720,-94,-550,499,1096,61.93240055,68.64274348,59.76,68.09,-0.049451303,-0.056515775,0,0
302,-33,0.9,1,40.72580645,-62.38931008,-8163.360224,914.6948052,-239.2338129,-47.21340385,-353.0248044,-5421.111643,-6151.25,-197.9036145,-638.8839221,503.8673469,1128.274283,61.93,68.64,59.76,68.09847087,-0.002400549,-0.002743484,0,0.008470874
302,-33,0.9,1,41.12903226,48,-8238,1096,-260,-285,-408,-5628,-5680,-402,-712,517,1149,61.93,68.64,59.76,68.12556242,0,0,0,0.02709155
302,-33,0.9,1,41.53225806,-10,-8366,1072,-243,-575,-481,-5804,-5790,-666,-739,567,1155,61.93,68.64,59.76,68.15833637,0,0,0,0.032773943
302,-33,0.9,1,41.93548387,-56.38467436,-8186.658787,1078,-211.6421169,-772.1932543,-528.7354381,-5772.519481,-6228.750004,-649.5830959,-760.8059406,602.8926242,1168.436736,61.93,68.64,59.76229595,68.18828733,0,0,0.00229595,0.029950958
302,-33,0.9,1,42.33870968,-112,-7882,1084,-173,-925,-562,-5693.038961,-6931.01557,-606.9439696,-781.5029703,632.0018677,1191.426702,61.93,68.64,59.7740109,68.22526841,0,0,0.011714951,0.036981083
302,-33,0.9,1,42.74193548,-224,-7624,1044,-135,-1040,-581,-5588,-7472,-548,-811,644,1224,61.89735599,68.60702626,59.79088224,68.26398717,-0.032644006,-0.032973743,0.016871339,0.038718762
302,-33,0.9,1,43.14516129,-286.0021523,-7130.401028,980.7556223,-49.40327238,-1103.369383,-581.772293,-5355.405483,-7786.849614,-388.4634378,-888.0617779,638.2962963,1294.081372,61.87,68.55061815,59.80748219,68.29707044,-0.027355994,-0.056408107,0.01659995,0.033083272
302,-33,0.9,1,43.5483871,-376,-6792,856,12,-1168,-582,-5039.036075,-8037.647029,-159.0094967,-995.4346669,627.7037037,1405.690522,61.87,68.50388838,59.81838297,68.31714506,0,-0.046729767,0.010900785,0.020074613
302,-33,0.9,1,43.9516129,-2922.326089,-15822,-663.1841938,-64,-1290.339072,-318.2802263,-4880,-8140,-42,-1059,622,1523,61.87,68.44998347,59.82,68.32,0,-0.053904912,0.001617025,0.002854944
302,-33,0.9,1,44.35483871,-6850,-24852,-2094,-140,-1444,152,-5335.622995,-7701.208949,-213,-1073.238833,664.9690158,1667.05429,61.87,68.40061426,59.82,68.32,0,-0.049369211,0,0
302,-33,0.9,1,44.75806452,-10222.80219,-13318,3365,-102.3757669,-1564.170493,727.7802263,-6166,-7114,-384,-1079,729,1757,61.87,68.4,59.82,68.32,0,-0.00061426,0,0
302,-33,0.9,1,45.16129032,-12140,-1784,8824,8,-1773,1097,-7030,-6892,-310,-1068,765,1716,61.87,68.4,59.82494606,68.32,0,0,0.004946061,0
302,-33,0.9,1,45.56451613,-11014,-8862,2312,649,-3349,876,-8108,-6422,-378,-1120,933,1510,61.87,68.4,59.8715978,68.32,0,0,0.04665174,0
302,-33,0.9,1,45.96774194,-6748.966058,-11834.07274,354.8444519,1017.870159,-1337.5,-941.6619769,-7333,-7430.856754,22,-1238.082921,1009.31154,1274.255752,61.84999593,68.3771382,59.88,68.3428618,-0.020004071,-0.022861795,0.008402198,0.022861795
302,-33,0.9,1,46.37096774,-1716,-13078,-394,1188,674,-3146,-6558,-8500,422,-1380,1042,1101,61.80069815,68.32079788,59.88,68.39920212,-0.049297781,-0.056340322,0,0.056340322
302,-33,0.9,1,46.77419355,1209.090773,-9805,544,415.5,593.6519553,-4225.251292,-6683.941748,-8594.143246,331,-1507.280002,1012.5,1047.659164,61.8,68.32,59.88,68.4,-0.000698148,-0.000797883,0,0.000797883
302,-33,0.9,1,47.17741935,3242,-6532,1482,-357,423,-4735,-6942,-8628,240,-1598,983,1001,61.8,68.32,59.88,68.4,0,0,0,0
302,-33,0.9,1,47.58064516,4628.331716,-7025.360543,556.3232129,-337.7843214,55.84804469,-4219.520842,-7320,-8334,330,-1629,1080,909,61.8,68.32,59.88,68.4,0,0,0,0
302,-33,0.9,1,47.98387097,5290,-7622,-820,-291,-221,-3475,-6357,-8031.311803,192.0916667,-1583.242695,1148.310653,842.5302958,61.8,68.29785156,59.88,68.4253125,0,-0.022148437,0,0.0253125
302,-33,0.9,1,48.38709677,5202,-7760,-1588,-172,-145,-3099,-5394,-7712,-72,-1500,1182,783,61.8,68.25,59.88,68.48,0,-0.047851563,0,0.0546875
302,-33,0.9,1,48.79032258,4763.824184,-7945.413842,-1182.405155,96.39768192,-100.7211902,-2578.429435,-5649.839378,-7266.358098,-474.0916667,-1412.380046,1178.5,730.1659838,61.8,68.25,59.88,68.48,0,0,0,0
302,-33,0.9,1,49.19354839,4102,-8114,-418,289,-77,-2062,-6048,-6988,-750,-1321,1175,659,61.79742188,68.25,59.88257813,68.4834375,-0.002578125,0,0.002578125,0.0034375
302,-33,0.9,1,49.59677419,3374.291882,-8233.831461,689.4051553,284,-72.72517189,-1686.544732,-6371.160622,-7010,-704.4057971,-1242.876437,1227.008671,455.3734604,61.749375,68.25,59.930625,68.5475,-0.048046875,0,0.048046875,0.0640625
302,-33,0.9,1,50,2840,-8294,1438,279,-68,-1356,-6552,-7032,-646,-1168,1297,164,61.74,68.25,59.94,68.56,-0.009375,0,0.009375,0.0125
302,-33,0.9,1,50.40322581,2710,-8062,494,281,-29,-1042,-6222.379447,-6841.276923,-622.5942029,-1092.582332,1331.491329,-132.751677,61.74,68.25,59.94,68.56,0,0,0,0
302,-33,0.9,1,50.80645161,2431.200842,-8128,464.5747869,329.671514,-12.7734192,-820.1823342,-5814,-6388,-612,-1017,1348,-453,61.74,68.25,59.94,68.56869129,0,0,0,0.008691289
302,-33,0.9,1,51.20967742,2084,-8194,456,400,-6,-655,-5706,-5328,-924,-940,1320,-786,61.74,68.25,59.94,68.59364546,0,0,0,0.024954167
302,-33,0.9,1,51.61290323,1772,-8130,750,440,-83,-549,-5558,-4630,-1332,-855,1271,-1054,61.74,68.25,59.94,68.62652441,0,0,0,0.032878951
302,-33,0.9,2,52.01612903,1702,-8158,1068,416,-12,-441,-4958,-3504,-2174,-711,1199,-1533,61.72821295,68.2271382,59.94,68.67118464,-0.011787051,-0.022861795,0,0.044660229
302,-33,0.9,2,52.41935484,1783.407407,-8134.666667,1218.976879,372.9102382,-16.66666667,-331.4922466,-2824.536727,-647.5731155,-2443.633502,-541.8513282,801.3511326,-2222.885568,61.68406301,68.17079788,59.94,68.71938554,-0.044149942,-0.056340322,0,0.048200904
302,-33,0.9,2,52.82258065,1934.592593,-8091.333333,1325.599551,318.0310027,-25.33333333,-223.0107052,232.509414,3084.435664,-2600.746163,-361.6101155,5.997914309,-2959.609451,61.63173402,68.17,59.94,68.72,-0.052328986,-0.000797883,0,0.00061446
302,-33,0.9,2,53.22580645,2016,-8068,1366,272,-30,-125,1790,4940,-2858,-199,-936,-3303,61.61,68.17,59.94,68.72,-0.021734021,0,0,0
302,-33,0.9,2,53.62903226,1564,-8068,916,243,24,-44,-370,3349.728394,-3845.552941,-79.63765538,-2412.852959,-2362,61.61,68.17,59.94,68.72,0,0,0,0
302,-33,0.9,2,54.03225806,960.271506,-8043,381.366242,291.0723214,-71,-24.21551724,-2530,644,-4644,55,-3490,-1421,61.61,68.18678383,59.96016461,68.73904849,0,0.016783832,0.020164609,0.019048493
302,-33,0.9,2,54.43548387,590,-8018,66,374,-166,-17,-1546,-1658,-406,305,-3567,-2200,61.61,68.24387005,59.99946502,68.79508432,0,0.057086223,0.039300412,0.056035824
302,-33,0.9,2,54.83870968,593.1642066,-8086,357.05778,465.9276786,-58.64979757,-117.5,-1608.736573,-3972.320727,1681.492642,511.4770338,-3205.06988,-2788.368486,61.64286562,68.34945032,60,68.85557692,0.032865617,0.105580263,0.000534979,0.0604926
302,-33,0.9,2,55.24193548,604,-8154,870,523,98,-245,-1766,-5262,2598,713,-2548,-3286,61.69131791,68.4,60,68.88,0.048452297,0.050549682,0,0.024423084
302,-33,0.9,2,55.64516129,934,-8032,1354,502,180,-283,-2407.016852,-4993.797327,1972.235045,944.0455009,-1841.426946,-3727.21377,61.72590436,68.4,60,68.88,0.034586448,0,0,0
302,-33,0.9,2,56.0483871,1554.622137,-8013.989051,1869.212336,413.8372613,89.06970509,-194,-3110,-4440,878,1178,-1145,-4119,61.76750971,68.450625,60,68.88,0.04160535,0.050625,0,0
302,-33,0.9,2,56.4516129,1978,-8008,2162,313,-28,-105,-3392.246575,-3361.202673,-262.5399156,1401.976798,-605.6519629,-4482.003813,61.8,68.56,60,68.88,0.032490288,0.109375,0,0
302,-33,0.9,2,56.85483871,1531.416957,-8022.120509,1827.037037,256.6177548,-77.1609572,-109.7763348,-3518,-2568,-1180,1607,-185,-4793,61.75898438,68.5053125,60,68.88,-0.041015625,-0.0546875,0,0
302,-33,0.9,2,57.25806452,677.2783587,-8048.685462,1204.962963,212.0866552,-113.6915897,-123.8860029,-3416,-2696,-1526,1774,82,-5024,61.74,68.48,60,68.88,-0.018984375,-0.0253125,0,0
302,-33,0.9,2,57.66129032,144,-8064,870,194,-128,-147,-2972,-3626,-1616,2105,230,-5335,61.74,68.48,60,68.88,0,0,0,0
302,-33,0.9,2,58.06451613,34.48925655,-8065.447761,991.6703704,208,-95.97198276,-289.2555946,-2472,-4176,-1464,2285,192,-5494,61.72653288,68.48,60.01386917,68.8546875,-0.013467119,0,0.013869173,-0.0253125
302,-33,0.9,2,58.46774194,-10,-8066,1234,222,-51,-500,-2275.161451,-4729.243343,-1421.735155,2402.804888,0.549934811,-5573.301891,61.68,68.48,60.06,68.8,-0.046532881,0,0.046130827,-0.0546875
302,-33,0.9,2,58.87096774,113.0634573,-8054.230769,1614.949739,167.1102603,-25.02801724,-669.2439796,-2117.076633,-5292.203167,-1399.269492,2510.1205,-391.4920923,-5640.319627,61.63868237,68.42952168,60.10402609,68.8,-0.041317632,-0.050478323,0.044026091,0
302,-33,0.9,2,59.27419355,360,-8030,1950,76,-12,-808,-2000.611088,-5841.94132,-1383.736251,2597.933666,-886.5090869,-5691.986418,61.59669276,68.4,60.12,68.79261719,-0.041989612,-0.029521677,0.015973909,-0.007382812
302,-33,0.9,3,59.67741935,700,-7994,2052,4,-12,-890,-1928.630363,-6355.519649,-1362.268674,2657.231222,-1386.884054,-5725.235473,61.553744,68.4,60.12,68.72738281,-0.042948754,0,0,-0.065234375
302,-33,0.9,3,60.08064516,1123.888707,-7960.313869,1908.306548,-94.8372093,-6.5,-934.3245112,-1904,-6810,-1322,2679,-1795,-5737,61.55,68.37792523,60.12,68.72,-0.003744001,-0.022074768,0,-0.007382812
302,-33,0.9,3,60.48387097,1378,-7942,1638,-156,-1,-969,-2458.358092,-7196.885762,-1180.129169,2662.269231,-2130.010297,-5697.171141,61.55,68.32,60.12,68.72,0,-0.057925232,0,0
302,-33,0.9,3,60.88709677,1305.104011,-7949.259259,1261.010581,-147.5111111,-11.37037037,-999.4294202,-3222,-7532,-990,2631,-2379,-5654,61.50583147,68.26838456,60.12,68.72,-0.044168532,-0.051615442,0,0
302,-33,0.9,3,61.29032258,1159.319133,-7962.740741,826.171957,-129.6888889,-30.62962963,-1027.742282,-3546,-7816,-850,2596,-2494,-5650,61.48,68.25,60.12,68.72738281,-0.025831468,-0.018384558,0,0.007382812
302,-33,0.9,3,61.69354839,1050,-7970,618,-114,-41,-1068,-3895.950163,-8082.057292,-737.7283814,2553.650474,-2526.669214,-5612.392787,61.48,68.25,60.12,68.79261719,0,0,0,0.065234375
302,-33,0.9,3,62.09677419,998.3413209,-7949.355932,1008.416196,-102.3,-37.5,-1156.112178,-4312,-8346,-612,2495,-2539,-5541,61.48,68.26816687,60.12,68.8,0,0.018166871,0,0.007382812
302,-33,0.9,3,62.5,974,-7914,1480,-96,-34,-1262,-4914,-8622,-402,2381,-2305,-5436,61.48,68.32,60.12,68.8,0,0.051833129,0,0
302,-33,0.9,3,62.90322581,1102.622688,-7890.075102,1620.583804,-133.0769098,-41.44382022,-1348.407465,-5054,-8946,-220,2272,-2098,-5323,61.48,68.38104452,60.07898438,68.75667962,0,0.061044521,-0.041015625,-0.043320384
302,-33,0.9,3,63.30645161,1322,-7852,1680,-209,-59,-1418,-4990,-9556,-26,2086,-1768,-5144,61.4715978,68.4,60.06,68.70083944,-0.008402198,0.018955479,-0.018984375,-0.055840179
302,-33,0.9,3,63.70967742,1510,-7666,1590,-320,-99,-1460,-4839.96781,-9870.158403,14.60812304,1929.412119,-1494.311622,-4950.934742,61.42494606,68.4,60.06,68.65405483,-0.04665174,0,0,-0.046784609
302,-33,0.9,3,64.11290323,1765.00845,-7761,1357.103636,-348.1889251,-95,-1501.340134,-4605.920929,-10124.86302,40.4051947,1785.369938,-1244.332498,-4749.340245,61.42,68.4,60.06,68.60730312,-0.004946061,0,0,-0.046751704
302,-33,0.9,3,64.51612903,1924,-7856,1184,-365,-91,-1529,-4343.913583,-10295.63613,56.49966901,1655.142788,-1019.437124,-4545.075626,61.42,68.4,60.06,68.56,0,0,0,-0.047303123
302,-33,0.9,3,64.91935484,1926.088791,-7847.899497,1223,-379.3409324,-109.4768128,-1535.516785,-4110,-10358,68,1540,-821,-4344,61.42,68.4,60.10101563,68.51021098,0,0,0.041015625,-0.049789019
302,-33,0.9,3,65.32258065,1928,-7830,1262,-394,-133,-1542,-3944.82043,-10233.67971,76.29443894,1440.806076,-656.140222,-4149.289997,61.410625,68.4,60.12,68.45978349,-0.009375,0,0.018984375,-0.050427493
302,-33,0.9,3,65.72580645,1963.825137,-7793.512502,1181.62963,-419.1248441,-139.8688411,-1572.94306,-3789.317723,-9928.470525,82.20704853,1353.286038,-511.7803335,-3956.043164,61.36257813,68.4,60.12,68.40955795,-0.048046875,0,0,-0.050225534
302,-33,0.9,3,66.12903226,2026.579235,-7738.979219,1032.37037,-449.4020845,-144.2314053,-1627.97153,-3550,-9544,90,1271,-359,-3758,61.38502058,68.4,60.14502058,68.36550018,0.022442451,0,0.025020576,-0.044057774
302,-33,0.9,3,66.53225806,2060,-7690,952,-472,-152,-1683,-2948,-8976,104,1194,-182,-3550,61.42,68.4,60.18,68.32,0.034979424,0,0.034979424,-0.045500179
302,-33,0.9,3,66.93548387,1898,-7656,1056,-483,-179,-1730,-2265.596128,-9096.643123,312.5805871,1060.33108,-15.13492063,-3266.457226,61.42,68.4,60.1536205,68.26134758,0,0,-0.026379497,-0.058652423
302,-33,0.9,3,67.33870968,1424.353178,-7676,1259.54232,-519.0282398,-182.7603734,-1866.664434,-1736,-9308,532,921,118,-2963,61.42,68.4,60.10119543,68.19251964,0,0,-0.052425077,-0.06882794
302,-33,0.9,3,67.74193548,1062,-7696,1400,-559,-184,-2033,-1524,-9504,560,830,193,-2695,61.42,68.4,60.06279489,68.11483517,0,0,-0.038400534,-0.077684465
302,-33,0.9,3,68.14516129,1775.40772,-7637.2,1178,-575.7289159,-162.5,-2174.280172,-1395.104814,-9344.622426,534.7105263,777.0056345,245.2954545,-2412.897159,61.42,68.4,60.06,68.02250498,0,0,-0.002794891,-0.092330188
302,-33,0.9,3,68.5483871,2822,-7528,956,-594,-141,-2252,-1292,-9032,496,746,271,-2143,61.42,68.40053735,60.05940159,67.92019422,0,0.00053735,-0.000598412,-0.10231076
302,-33,0.9,3,68.9516129,3380,-7408,1272,-642,-254,-2168,-1186.111238,-8615.262561,475.1564505,731.6521331,266.6376812,-1900.364045,61.42,68.44531651,60.01714635,67.81001173,0,0.044779157,-0.042255241,-0.110182494
302,-33,0.9,3,69.35483871,2960,-7436.756293,1033.866638,-699.2139452,-299.2941176,-2145.415357,-1087.82971,-8092.629371,457.0965266,721.7149555,257.6086957,-1675.341104,61.42,68.50221046,60,67.78,0,0.056893955,-0.017146346,-0.03001173
302,-33,0.9,3,69.75806452,2540,-7490,544,-733,-318,-2137,-1016,-7636,428,718,250,-1481,61.42,68.55545695,60,67.78,0,0.053246489,0,0
302,-33,0.9,3,70.16129032,2574,-7548,-182,-668,-301,-2179,-976,-7318,346,735,246,-1329,61.42,68.56,59.99304616,67.76285919,0,0.004543049,-0.006953836,-0.017140806
302,-33,0.9,3,70.56451613,2320,-7453.261146,227,-586.454106,-295.6912381,-2246.36972,-1026.081967,-7076.994204,318.712766,760.3374384,250.0696203,-1185.541864,61.42,68.56079788,59.96863678,67.6943112,0,0.000797883,-0.024409383,-0.068547998
302,-33,0.9,3,70.96774194,2066,-7326,636,-531,-290,-2336,-1106,-6858,308,789,262,-1039,61.42,68.6171382,59.94522915,67.60271469,0,0.056340322,-0.02340763,-0.09159651
302,-33,0.9,3,71.37096774,2447.931649,-7273.677125,574.6961538,-522.5977878,-250.6058824,-2488.865338,-1162,-6632,370,816,331,-875,61.42,68.64,59.94,67.51530634,0,0.022861795,-0.005229151,-0.087408345
302,-33,0.9,3,71.77419355,3154,-7234,482,-515,-216,-2593,-1169.802465,-6801.472727,434.9912338,800.2465753,422.8539869,-759.2454179,61.42,68.64,59.94,67.41904932,0,0,0,-0.096257018
302,-33,0.9,3,72.17741935,4118.068351,-7189.061728,413.3038462,-480.8205128,-239.6349693,-2501.737024,-1174,-7110,508,766,514,-691,61.43997866,68.64,59.94,67.31740735,0.019978655,0,0,-0.101641968
302,-33,0.9,3,72.58064516,4758,-7164,376,-453,-283,-2382,-1178,-7430,602,706,581,-674,61.48383144,68.64011858,59.93940159,67.23454516,0.043852781,0.000118579,-0.000598412,-0.082862193
302,-33,0.9,3,72.98387097,4070,-7212,844,-507.0775862,-337.0078878,-2328.762976,-1043.034884,-7711.898305,595.4285714,633.1704751,627.75237,-614.1300863,61.53179982,68.65264208,59.89714635,67.19658536,0.047968379,0.012523505,-0.042255241,-0.037959797
302,-33,0.9,3,73.38709677,3382,-7260,1312,-576,-379,-2304,-886,-7862,578,565,671,-535,61.58121011,68.67985797,59.88,67.1383525,0.049410298,0.027215884,-0.017146346,-0.058232863
302,-33,0.9,3,73.79032258,3384,-6942,406,-597,-389,-2369,-848.9651163,-7801,458.5714286,517.1948052,720.7589032,-473.5570762,61.60904684,68.71330674,59.88,67.03481621,0.027836731,0.033448768,0,-0.103536291
302,-33,0.9,3,74.19354839,3667.119461,-6952.625,423.9422814,-564.03125,-376.1875,-2359.434692,-834,-7740,350,475,774,-416,61.61,68.75452411,59.88,66.97818161,0.000953156,0.041217376,0,-0.056634601
302,-33,0.9,3,74.59677419,4285.661743,-6976,476.0127505,-491.5,-348,-2332.992512,-901,-7824.695279,405.4017857,429.4417989,836.065085,-363.2387813,61.61,68.8046108,59.88,66.93566149,0,0.050086685,0,-0.042520115
302,-33,0.9,3,75,4903.373154,-6999.375,559.5768443,-418.96875,-319.8125,-2293.054077,-968,-8004,520,390,892,-309,61.61,68.84745022,59.88,66.89534187,0,0.042839421,0,-0.040319625
302,-33,0.9,3,75.40322581,5184,-7010,672,-386,-307,-2243,-931.317757,-8329.860721,698.4833494,364.2877493,928.6325543,-248.3628314,61.61,68.91945255,59.88,66.85071918,0,0.072002337,0,-0.044622691
302,-33,0.9,3,75.80645161,5006,-6826,984,-428,-367,-2140,-868,-8672,910,340,959,-176,61.61,69.03453011,59.88,66.79937072,0,0.115077555,0,-0.051348459
302,-33,0.9,3,76.20967742,4913.646411,-7016,849,-506.338082,-465.0630521,-2007.368317,-797.682243,-8893.444,1131.114865,308.0181393,986.8206261,-76.04327158,61.61,69.04,59.88,66.75695845,0,0.005469891,0,-0.042412272
302,-33,0.9,3,76.61290323,4804,-7206,714,-586,-539,-1927,-754,-9004,1260,273,1014,43,61.61,69.04089844,59.88,66.71512842,0,0.000898437,0,-0.041830022
302,-33,0.9,3,77.01612903,4271.115709,-6817.340674,834,-642.9221311,-556.2653061,-1972.194175,-757,-8789.180328,1245.980952,237.38581,1041.706727,179.5893364,61.61,69.10144531,59.88,66.65369863,0,0.060546875,0,-0.061429795
302,-33,0.9,3,77.41935484,3822,-6344,954,-672,-563,-2060,-760,-8556,1214,201,1075,313,61.61,69.12,59.86608398,66.64,0,0.018554688,-0.013916016,-0.01369863
302,-33,0.9,3,77.82258065,5282,-6230,58,-666,-475,-2170,-658.0216606,-8526.819672,1123.019048,165.5174289,1122.348374,421.1699751,61.61,69.12,59.82067383,66.64,0,0,-0.045410156,0
302,-33,0.9,3,78.22580645,5936.656881,-6376,303.515015,-657.9469027,-575.8095238,-2026.296881,-496,-8516,1050,128,1192,512,61.61,69.12,59.82,66.605,0,0,-0.000673828,-0.035
302,-33,0.9,3,78.62903226,6216,-6522,716,-653,-707,-1825,-384,-8824,1136,84,1324,581,61.61078613,69.11956183,59.82,66.57,0.000786133,-0.000438172,0,-0.035
302,-33,0.9,3,79.03225806,5598,-6104,1054,-717,-751,-1734,-340,-9090,1172,53,1450,595,61.66376465,69.07711872,59.82,66.57,0.052978516,-0.042443106,0,0
302,-33,0.9,3,79.43548387,5682,-6390,405,-713.9444444,-804.887468,-1668.525862,-199.5965034,-9113.567836,1206.704377,4.168682474,1598.190476,626.7238471,61.68,68.95366831,59.80748219,66.55801486,0.016235352,-0.12345041,-0.01251781,-0.011985142
302,-33,0.9,3,79.83870968,5766,-6910,-244,-707,-837,-1636,28.5611106,-9124.656595,1238.241077,-56.78615177,1744.095238,677.0000384,61.68,68.73061423,59.76229595,66.50011917,0,-0.223054084,-0.045186241,-0.057895685
302,-33,0.9,3,80.24193548,5051,-7583.508021,256,-687.5555556,-785,-1671.444444,250,-9136,1252,-116,1810,738,61.68,68.72,59.76,66.44593451,0,-0.010614228,-0.00229595,-0.054184662
302,-33,0.9,3,80.64516129,4336,-8026,756,-672,-733,-1724,430,-9152,1236,-168,1791,822,61.68,68.72249404,59.76,66.42,0,0.002494042,0,-0.025934511
302,-33,0.9,3,81.0483871,4886,-8028.838547,177,-714.5,-743,-1751.447122,592,-9008,1108,-249,1660,947,61.68,68.79418429,59.76,66.42,0,0.071690245,0,0
302,-33,0.9,3,81.4516129,5436,-8032,-402,-757,-753,-1780,739.7476905,-8782.098079,992.2027855,-264.9643548,1520.145081,1013.080436,61.68,68.91690418,59.76,66.40865377,0,0.122719893,0,-0.011346229
302,-33,0.9,3,81.85483871,4890,-8214,174,-686,-753,-1828,877.263811,-8500.784085,878.4427398,-272.8849887,1376.830336,1061.317996,61.68,69.02564862,59.76,66.35756543,0,0.108744437,0,-0.051088339
302,-33,0.9,3,82.25806452,5068,-7809.818182,29.0777512,-661.975964,-786.308642,-1906.123471,992,-8228,740,-286,1241,1080,61.68,69.08289849,59.75113115,66.32376519,0,0.05724987,-0.008868854,-0.033800245
302,-33,0.9,3,82.66129032,5246,-7188,-220,-644,-824,-1974,1068.748334,-7989.677969,543.7407444,-330.1566514,1127.86886,1059.239761,61.68,69.12963612,59.72592036,66.29288864,0,0.046737635,-0.025210786,-0.030876543
302,-33,0.9,3,83.06451613,5213.039301,-6701.181818,-493.0777512,-621.9441176,-829.941358,-1998.295634,1154,-7754,306,-376,1001,1022,61.68,69.17662016,59.70371483,66.27293576,0,0.046984038,-0.022205526,-0.019952887
302,-33,0.9,3,83.46774194,5144,-6432,-662,-596,-834,-2022,1332,-7508,38,-393,796,985,61.68,69.22841441,59.7,66.27,0,0.051794251,-0.003714834,-0.002935758
302,-33,0.9,3,83.87096774,5036,-6876,-656,-558,-839,-2077,4278.313571,-7839.401047,321.6114606,-334.3419023,-995.3232466,1780.5,61.68,69.27791573,59.7,66.27,0,0.049501323,0,0
302,-33,0.9,3,84.27419355,4782.149312,-7079.500606,-590.4911504,-522.956446,-830.5719178,-2188.218245,7072,-8780,1172,-201,-3317,2576,61.71,69.25302096,59.7,66.235,0.03,-0.024894772,0,-0.035
302,-33,0.9,3,84.67741935,4598,-7320,-530,-504,-816,-2350,-2868,-13336,6822,68,-4435,2368,61.74,69.1850917,59.7,66.2,0.03,-0.067929264,0,-0.035
302,-33,0.9,3,85.08064516,5044,-8216,-698,-512,-803,-2579,-1377.6875,-13144.125,9284.886,329.7076087,-3955.78006,1812.248438,61.74,69.08284242,59.7,66.2,0,-0.102249273,0,0
302,-33,0.9,3,85.48387097,4942,-8498,-832,-548,-693,-2690,1901,-12722,11195.95422,595.2956522,-2843.580161,959.3041671,61.74,69.00605922,59.68608398,66.2,0,-0.07678321,-0.013916016,0
302,-33,0.9,3,85.88709677,5266.072452,-9142.779581,-622.6045142,-602.334925,-633.1254753,-2777.296512,5179.6875,-12299.875,12432.54533,801.2358696,-1586.590181,177.4578127,61.74,68.96051696,59.64067383,66.2,0,-0.045542251,-0.045410156,0
302,-33,0.9,3,86.29032258,5790,-9900,-272,-637,-606,-2822,6670,-12108,12872,884,-673,-165,61.77,68.98604863,59.64,66.16,0.03,0.025531668,-0.000673828,-0.04
302,-33,0.9,3,86.69354839,6247.961984,-10442.90526,65.29765702,-633.4755859,-644.75,-2808.263985,5821.099771,-13202,8845.165756,554.7030999,-85.20991969,768.215177,61.8,69.04724663,59.64,66.12,0.03,0.061197996,0,-0.04
302,-33,0.9,3,87.09677419,6735.855097,-10913.18477,440.2090285,-621.6015625,-730,-2767.787294,4400,-14296,3042,129,213,2091,61.8,69.16955143,59.64,66.12,0,0.122304806,0,0
302,-33,0.9,3,87.5,7123.820661,-11399.8719,744.5158857,-599.4267578,-815.25,-2701.666956,3334.968552,-12474.44444,-635.405788,-52.87958501,6.888888889,2885.02487,61.8,69.2,59.65391602,66.12,0,0.030448566,0.013916016,0
302,-33,0.9,3,87.90322581,7282,-11992,870,-565,-854,-2611,2262.647605,-9091.555556,-3743.036227,-188.6620147,-375.8888889,3543.401324,61.8,69.2,59.69932617,66.12,0,0,0.045410156,0
302,-33,0.9,3,88.30645161,6846,-12828,522,-272,-517,-2334,934,-7270,-5052,-242,-582,3818,61.83808467,69.27245279,59.7,66.12,0.038084673,0.072452787,0.000673828,0
302,-33,0.9,3,88.70967742,6523.487817,-11813.63194,544.8148148,-220.147736,-523.3619632,-1935.183342,-1086,-7876,-1850,305,-369,3732,61.87,69.37201432,59.7,66.12,0.031915327,0.099561531,0,0
302,-33,0.9,3,89.11290323,6231.935772,-9520.152773,587.1851852,-190.4627569,-541.0572597,-1454.702065,-4888.923364,-7936.785061,2965.36672,244.1482797,-125.0899432,3157.615754,61.87,69.41806149,59.7,66.12,0,0.04604717,0,0
302,-33,0.9,3,89.51612903,5802,-7072,610,-181,-568,-975,-7484,-7956,6034,85,124,2284,61.88555556,69.48589145,59.7,66.12,0.015555556,0.067829962,0,0
302,-33,0.9,4,89.91935484,4834,-4718,-240,-265,-642,-524,-4756,-7736,4950,-446,354,1531,61.92794239,69.58088024,59.7,66.12,0.042386831,0.09498879,0,0
302,-33,0.9,4,90.32258065,4882.969867,-2560.929697,-1347.00933,-451.6197183,-665.3984522,-187.0361224,-3445.555628,-7934.640086,1697.149952,-526.9492481,209.145,1128.270265,61.93,69.68444527,59.67,66.085,0.002057613,0.103565026,-0.03,-0.035
302,-33,0.9,4,90.72580645,5020,-974,-2288,-585,-690,119,-2682,-8154,-806,-554,21,875,61.93,69.77335575,59.64,66.05,0,0.088910488,-0.03,-0.035
302,-33,0.9,4,91.12903226,5638,-272,-2726,-504,-783,439,-2241.022493,-8187.359914,-376.9521027,-327.9187117,-59.145,738.0227273,61.93,69.82553418,59.64,66.05,0,0.052178426,0,0
302,-33,0.9,4,91.53225806,4966.473084,1632.329925,-3783.521337,-411.1414542,-272.3519129,1362.031557,-2044,-8200,480,-89,-96,629,61.95000407,69.9133679,59.64,66.05,0.020004071,0.087833718,0,0
302,-33,0.9,4,91.93548387,3904,3064,-4556,-293,615,2066,-2836,-8130,1644,-74,-83,506,61.99930185,70.00879309,59.64,66.05,0.049297781,0.095425191,0,0
302,-33,0.9,4,92.33870968,3138.626494,1026.504229,-4032.538754,-100.9363238,1620.351913,1941,-2413.925926,-8087.94302,1306.444444,-59.97032627,-39.78947368,322.5810588,62,70.01,59.62904583,66.05,0.000698148,0.001206911,-0.01095417,0
302,-33,0.9,4,92.74193548,2480,-1732,-2886,131,2249,1816,-1630.074074,-8055.287749,679.5555556,-44.8340157,21.10526316,124.0127516,62,70.01269336,59.60323399,66.05,0,0.002693358,-0.025811837,0
302,-33,0.9,4,93.14516129,1864.900422,-2813.896579,-637.4446245,416.158371,2023.746242,1930.260228,-1208,-8020,342,-21,52,31,62,70.06984596,59.58243092,66.05,0,0.057152607,-0.020803072,0
302,-33,0.9,4,93.5483871,1534,-3794,2024,591,1595,2216,-1316,-7976,668,44,-18,87,62.00522915,70.1106356,59.58,66.07000407,0.005229151,0.040789638,-0.002430921,0.020004071
302,-33,0.9,4,93.9516129,4300,-5270,3866,411,1089,3017,-1946,-7988,1828,23,-92,96,62.02863678,70.14262672,59.58,66.11930185,0.02340763,0.031991118,0,0.049297781
302,-33,0.9,4,94.35483871,4094,-4583.468783,3363.928499,162.2597685,723.6838953,3448.663926,-1884.025559,-7957,1808.125969,-54.54817444,5.5,26.5,62.05304616,70.16470791,59.5444043,66.12,0.024409383,0.02208119,-0.035595703,0.000698148
302,-33,0.9,4,94.75806452,3888,-3552,2422,8,377,3794,-1734,-7926,1758,-127,103,-43,62.06,70.16545695,59.52071356,66.12505597,0.006953836,0.00074904,-0.023690739,0.005055974
302,-33,0.9,4,95.16129032,4326,-2956,1356,18,-43,4153,-1169.974441,-7989,1519.874031,-141.6846089,74.51351351,12.81321023,62.06,70.11221046,59.53190632,66.1951608,0,-0.053246489,0.011192764,0.070104824
302,-33,0.9,4,95.56451613,3994.706311,-3238,100.1083167,170.189701,-466.5339394,4600.506238,-694,-8052,1312,-151,41,112,62.07462809,70.06196214,59.55259645,66.29335437,0.014628088,-0.050248322,0.020690125,0.098193568
302,-33,0.9,4,95.96774194,3458,-3520,-782,432,-752,5033,-800.0869565,-8029,1356.709677,-158.6737255,32.48648649,213.4327602,62.12582647,70.01483352,59.57748436,66.34941482,0.051198382,-0.047128623,0.024887916,0.056060452
302,-33,0.9,4,96.37096774,3065.349869,-3404,-1049.94113,719.0791027,-846.4979216,5386.661098,-950,-8006,1438,-168,29,309,62.17235434,69.95418423,59.6118603,66.35,0.046527872,-0.060649284,0.034375941,0.000585182
302,-33,0.9,4,96.77419355,2678,-3288,-1158,984,-885,5645,-1020,-8022,1522,-192,55,372,62.19,69.93,59.65234688,66.34538147,0.017645659,-0.024184232,0.040486576,-0.004618535
302,-33,0.9,4,97.17741935,2244.230992,-3604.253521,-832.2683856,1179.563754,-755.3372385,5788.526662,-1024.601695,-7991.538462,1674.290761,-238.6780565,60.90025643,449.9101726,62.19,69.93,59.69421578,66.29180548,0,0,0.041868899,-0.05357599
302,-33,0.9,4,97.58064516,1856,-4160,-324,1279,-474,5881,-1026,-7950,1778,-300,66,538,62.19,69.93,59.7,66.23722794,0,0,0.005784222,-0.054577533
302,-33,0.9,4,97.98387097,1598,-4680,8,1267,16,5932,-979.9597315,-7934.89011,1779.496124,-366.2030116,84.04651163,629.8254109,62.19,69.93,59.7,66.2,0,0,0,-0.037227942
302,-33,0.9,4,98.38709677,1622.072805,-4859.61365,-309.9301746,1217.643141,607.6116293,5910.720238,-886,-7918,1780,-441,98,739,62.23080933,69.93,59.66502058,66.2,0.040809328,0,-0.034979424,0
302,-33,0.9,4,98.79032258,1686,-4998,-828,1168,1236,5867,-750,-7868,1656,-527,97,896,62.26,69.93,59.64,66.20198698,0.029190672,0,-0.025020576,0.001986979
302,-33,0.9,4,99.19354839,2003.445072,-5174.092437,-1312.069825,1151.834016,1917.187786,5801.052135,-772.6690695,-7884,1458.011209,-579.927595,96.32692308,1046.865006,62.26,69.93,59.64,66.2485625,0,0,0,0.046575521
302,-33,0.9,4,99.59677419,2532,-5394,-1596,1145,2458,5722,-828,-7900,1248,-614,96,1181,62.27346712,69.93,59.62101563,66.30625,0.013467119,0,-0.018984375,0.0576875
302,-33,0.9,4,100,3122,-5754,-1318,1199,2699,5652,-970,-7854,1092,-630,108,1283,62.32,69.93,59.58,66.35,0.046532881,0,-0.041015625,0.04375
302,-33,0.9,1,0,3842.844157,-6094.324864,-687.5699171,1189.377419,2825.403887,5644.385496,-1162.482811,-7851.846033,859.6302414,-616.6833333,111.0960591,1394.625784,62.37082063,69.93,59.58,66.35,0.050820633,0,0,0
302,-33,0.9,1,0.568181818,4532,-6280,164,1161,2882,5638,-1376,-7850,712,-596,114,1491,62.39,69.92340525,59.58,66.34532017,0.019179367,-0.006594749,0,-0.004679829
302,-33,0.9,1,1.136363636,5030,-6200,1076,991,2616,5614,-1622.991161,-7834.718535,815.0419162,-579.3166667,124.0884647,1550.534044,62.39,69.86120293,59.58,66.29147663,0,-0.06220232,0,-0.053843544
302,-33,0.9,1,1.704545455,5697.856305,-6463.27507,1446.43566,815.9854061,2243.600873,5562.327287,-1794,-7808,1000,-570,137,1602,62.39,69.8728618,59.58,66.24515659,0,0.011658864,0,-0.046320036
302,-33,0.9,1,2.272727273,6108,-6906,1600,687,1817,5499,-1825.72803,-7772.38537,1230.958084,-598.7516026,145.9627976,1659.601667,62.39,69.92920212,59.58,66.20445934,0,0.056340322,0,-0.040697246
302,-33,0.9,1,2.840909091,5918.489643,-7356.321445,1395.766487,632.8490534,1347.003359,5446.647533,-1856,-7736,1380,-647,156,1716,62.4255957,69.93,59.58,66.15508765,0.035595703,0.000797883,0,-0.049371694
302,-33,0.9,1,3.409090909,5540,-7636,1058,597,928,5391,-1977.94042,-7708.799377,1204,-686.0356751,172.2325487,1768.902713,62.45,69.93,59.58,66.10429785,0.024404297,0,0,-0.050789798
302,-33,0.9,1,3.977272727,5026,-7646,794,570,668,5320,-2146,-7690,1028,-726,193,1818,62.45,69.93,59.58,66.05432715,0,0,0,-0.049970703
302,-33,0.9,1,4.545454545,4609.181898,-7793.638478,477.3678756,555.0047385,456.636173,5170.67745,-2288,-7682,1066,-768,218,1861,62.45,69.90047832,59.58,66.05,0,-0.029521677,0,-0.004327148
302,-33,0.9,1,5.113636364,4244,-8040,290,544,287,4992,-2255,-7637.886076,1210.879182,-821.5,239.4010695,1903.373207,62.45,69.85,59.58,66.05,0,-0.050478323,0,0
302,-33,0.9,1,5.681818182,3922.205056,-8329.685912,408.7250996,536.3949065,164.5131467,4848.716181,-2222,-7600,1328,-875,266,1949,62.45,69.85,59.54214126,66.05,0,0,-0.037858742,0
302,-33,0.9,1,6.25,3618,-8512,588,527,65,4703,-2278,-7624,1148,-917,321,2005,62.45,69.85,59.52,66.05645996,0,0,-0.022141258,0.006459961
302,-33,0.9,1,6.818181818,3270.729851,-8357.801989,720.2749004,486.0353261,-20.94165542,4535.682766,-2360.101968,-7547,923.1709917,-944.4435194,328.5682917,2063.759928,62.45,69.85,59.52,66.11354004,0,0,0,0.057080078
302,-33,0.9,1,7.386363636,2994,-8114,792,452,-99,4352,-2412,-7470,772,-971,335,2127,62.42785874,69.81678811,59.49785874,66.12,-0.022141258,-0.033211887,-0.022141258,0.006459961
302,-33,0.9,1,7.954545455,2868,-7948,492,459,-175,4146,-2384,-7483,753.892299,-1017.977273,367.3287671,2206.585926,62.39,69.76,59.46,66.12,-0.037858742,-0.056788113,-0.037858742,0
302,-33,0.9,1,8.522727273,2463.41905,-8041.70412,193.6440678,486.5735294,-133.7645788,3959.226723,-2356,-7496,732,-1049,394,2276,62.39,69.82152344,59.46,66.12,0,0.061523437,0,0
302,-33,0.9,1,9.090909091,1986,-8202,28,509,-46,3748,-3306,-7438,-124,-1002,326,2312,62.39,69.83864198,59.46,66.12,0,0.017118538,0,0
302,-33,0.9,1,9.659090909,1639.429787,-8338.690376,250.1333333,455.7876614,103.9414414,3419.722943,-3998.473417,-7375.760946,-16.52062734,-939.3765607,341.7656951,2207.227902,62.39,69.77135802,59.46,66.12,0,-0.067283951,0,0
302,-33,0.9,1,10.22727273,1458,-8482,504,392,288,3063,-4344,-7318,230,-901,375,2049,62.39,69.76,59.46,66.12,0,-0.011358025,0,0
302,-33,0.9,1,10.79545455,1566,-8634,544,378,445,2777,-4052,-7274,742,-942,428,1956,62.39,69.76,59.46,66.12,0,0,0,0
302,-33,0.9,1,11.36363636,1603.293699,-8634,625.2970297,365.7142,608.7007354,2465.284085,-3558.216547,-7304,427,-979.657767,467.8825967,1933.284483,62.39,69.7053125,59.46,66.16409247,0,-0.0546875,0,0.044092466
302,-33,0.9,1,11.93181818,1632,-8634,682,348,719,2160,-3136,-7334,112,-1000,488,1925,62.39,69.68,59.46,66.21721544,0,-0.0253125,0,0.053122977
302,-33,0.9,1,12.5,1672,-8324,600,292,745,1895,-2952.766102,-7313.453488,121,-980.9683099,466.6552925,2007.158795,62.39,69.68,59.46,66.2572642,0,0,0,0.040048757
302,-33,0.9,1,13.06818182,1593.843687,-8329.103448,449.0372345,233.2554373,678.9321267,1780.732439,-2872,-7272,130,-953,437,2128,62.36416853,69.68,59.46,66.29845783,-0.025831468,0,0,0.041193633
302,-33,0.9,1,13.63636364,1422,-8340,308,165,559,1690,-3836,-7214,-104,-938,424,2193,62.32,69.68,59.46,66.35,-0.044168532,0,0,0.051542167
302,-33,0.9,1,14.20454545,1035.785942,-8355.793291,247.3154127,60.37810606,430.4035055,1579.21418,-3890.568803,-7181.575803,-365.173368,-911.3412511,430.032,2204.214188,62.32,69.64126901,59.46,66.50051767,0,-0.038730992,0,0.150517674
302,-33,0.9,1,14.77272727,674,-8382,194,-38,303,1460,-3927.939903,-7159.60868,-657.2600389,-874.3108429,444.416,2209.568879,62.31446289,69.58529713,59.46,66.57,-0.005537109,-0.055971877,0,0.069482326
302,-33,0.9,1,15.34090909,566.0026591,-8461.103261,111.3385655,-102.9091667,207.3083659,1319.957532,-3951.026602,-7140.253656,-929.160026,-834.6098093,461.584,2212.816476,62.26553711,69.53506857,59.46,66.57,-0.048925781,-0.050228562,0,0
302,-33,0.9,1,15.90909091,504,-8524,30,-135,124,1185,-3962.742201,-7115.665754,-1129.773342,-799.9391837,475.968,2217.709382,62.26,69.47638672,59.46,66.59087689,-0.005537109,-0.05868185,0,0.020876888
302,-33,0.9,1,16.47727273,470.1332637,-8367.407407,-39.15824916,-121.2592593,44.78783731,1087.269106,-3966,-7078,-1208,-778,482,2228,62.25937586,69.44,59.46,66.64432719,-0.000624143,-0.036386719,0,0.053450305
302,-33,0.9,1,17.04545455,446.8415196,-8076.592593,-99.91245791,-95.74074074,-28.92921942,1001.58998,-3915,-6964.295082,-242,-765.7483871,472.1693548,2295.060069,62.21352538,69.44,59.46,66.68457313,-0.04585048,0,0,0.040245938
302,-33,0.9,1,17.61363636,412,-7920,-126,-82,-93,894,-3864,-6874,724,-760,459,2355,62.19,69.43261719,59.46553711,66.74586943,-0.023525377,-0.007382812,0.005537109,0.061296303
302,-33,0.9,1,18.18181818,313.3220438,-8098.256,-50.912,-108.624,-145.5559841,714.9566549,-5038,-7214,-196,-811,454,2313,62.19,69.36738281,59.51446289,66.85893261,0,-0.065234375,0.048925781,0.113063176
302,-33,0.9,1,18.75,144.6757275,-8523.328,128.144,-172.112,-190.5912492,469.3895033,-5470,-6932,-316,-827,526,2174,62.16785874,69.36,59.52,66.87,-0.022141258,-0.007382812,0.005537109,0.01106739
302,-33,0.9,1,19.31818182,-46.83161074,-9030.672,341.856,-247.888,-232.7485224,205.0440242,-4654,-6796.843459,271,-898.9747939,627.0315186,2187.374329,62.13,69.36,59.52,66.87,-0.037858742,0,0,0
302,-33,0.9,1,19.88636364,-214.0926327,-9455.744,520.912,-311.376,-276.6705304,-30.33430331,-3838,-6738,858,-973,690,2210,62.13,69.36,59.52,66.90418812,0,0,0,0.034188122
302,-33,0.9,1,20.45454545,-310,-9634,596,-338,-327,-189,-3845.102956,-6788.617284,841.8252276,-998.4310469,683.9643347,2229.930248,62.13,69.36,59.52,66.97464183,0,0,0,0.070453708
302,-33,0.9,1,21.02272727,-347.3734624,-9570.76242,593.4999323,-320.051537,-388.0460862,-291.3812771,-3865.45294,-6924.271605,796.5240989,-1018.334041,667.7887517,2252.047986,62.13,69.36,59.52,67.08017653,0,0,0,0.1055347
302,-33,0.9,1,21.59090909,-373.6465098,-9409.950854,586.5331166,-274.5871406,-457.9508855,-386.405569,-3897.611622,-7120.666667,726.9313972,-1033.936727,644.3703704,2275.351764,62.13,69.31199518,59.52,67.09,0,-0.048004823,0,0.00982347
302,-33,0.9,1,22.15909091,-393.6324148,-9194.917066,575.8996343,-214.1782998,-532.1065372,-469.0762314,-3940.140674,-7353.506173,637.8819052,-1046.466847,616.60631,2298.84013,62.13,69.2,59.52,67.09,0,-0.111995177,0,0
302,-33,0.9,1,22.72727273,-412.1444498,-8969.01282,562.3995666,-151.3965035,-605.9051807,-534.3966203,-3991.601768,-7598.493827,534.2104062,-1057.152146,587.39369,2321.511634,62.13,69.13615714,59.52,67.13375,0,-0.063842864,0,0.04375
302,-33,0.9,1,23.29545455,-433.9958874,-8775.589876,546.8329947,-98.81324059,-674.7389552,-577.3700912,-4050.556577,-7831.333333,420.7516832,-1067.220367,559.6296296,2342.364824,62.1190625,69.12,59.52,67.1914375,-0.0109375,-0.016157136,0,0.0576875
302,-33,0.9,1,23.86363636,-464,-8658,530,-69,-734,-593,-4115.56677,-8027.728395,302.3405191,-1077.899254,536.2112483,2360.398249,62.06300781,69.12,59.52,67.23801302,-0.056054688,0,0,0.046575521
302,-33,0.9,1,24.43181818,-499.4314849,-8594.571037,508.5513038,-57.29623989,-789.5672276,-593.2353759,-4185.194021,-8163.382716,183.811697,-1090.41655,520.0356653,2374.610458,62.06,69.08352534,59.54735599,67.24,-0.003007813,-0.036474659,0.027355994,0.001986979
302,-33,0.9,1,25,-536.8952652,-8535.935964,479.0478671,-49.53796938,-847.692578,-593.380221,-4258,-8214,70,-1106,514,2384,62.05940159,69.04079788,59.58,67.24053735,-0.000598412,-0.042727458,0.032644006,0.00053735
302,-33,0.9,1,25.56818182,-580.1999525,-8483.90424,442.1551305,-44.04150388,-904.327732,-593.4703499,-4353.517843,-8092.688047,-66.31506741,-1123.106803,521.3620983,2390.488008,62.01714635,69.0971382,59.58,67.28531651,-0.042255241,0.056340322,0,0.044779157
302,-33,0.9,1,26.13636364,-633.1541581,-8440.285323,398.5385348,-39.12315878,-955.4243704,-593.5415774,-4486.009549,-7779.830904,-241.126936,-1139.999461,541.8872665,2396.529262,62,69.11777635,59.58,67.33768529,-0.017146346,0.020638145,0,0.052368783
302,-33,0.9,1,26.70454545,-699.5664936,-8406.888671,348.8635207,-33.0992495,-996.9341741,-593.6297185,-4646.130089,-7352.046647,-432.7602259,-1157.613673,573.2338144,2401.922786,62,69.09718828,59.58,67.38266464,0,-0.02058807,0,0.044979349
302,-33,0.9,1,27.27272727,-783.2455704,-8385.523744,293.7955289,-24.28609144,-1024.808824,-593.7705877,-4824.534433,-6885.953353,-619.5395572,-1176.885135,613.0600519,2406.4676,62,69.06597436,59.58,67.4749363,0,-0.031213923,0,0.092271662
302,-33,0.9,1,27.84090909,-888,-8378,234,-11,-1035,-594,-5011.877553,-6458.169096,-779.7895499,-1198.749546,659.0242888,2409.962725,61.9998219,69.03754664,59.58,67.55,-0.000178099,-0.028427718,0,0.075063699
302,-33,0.9,1,28.40909091,-1571.223131,-9202.982482,163.8184772,106.7845894,-879.1778426,-751.4710142,-5198.814419,-6145.311953,-891.8348242,-1224.142601,708.7848348,2412.207185,61.98276002,69.00827541,59.58,67.55,-0.017061877,-0.029271226,0,0
302,-33,0.9,1,28.97727273,-3145.669315,-11402.03685,77.52330243,384.6656712,-477.3206997,-1160.631404,-5376,-6024,-934,-1254,760,2413,61.95287503,68.97881083,59.58,67.56066679,-0.029884999,-0.02946458,0,0.010666788
302,-33,0.9,1,29.54545455,-5248.188665,-14561.32347,-24.32388579,757.6855749,72.1574344,-1727.459055,-5582.422148,-6103.533128,-926.8896742,-1295.081718,839.8420832,2402.21875,61.93153877,68.9611822,59.58,67.61488914,-0.021336251,-0.017628633,0,0.054222353
302,-33,0.9,1,30.11363636,-7515.631295,-18267.00272,-141.1614488,1160.88663,670.8425656,-2357.931853,-5816.597465,-6330.755008,-904.8724644,-1350.566445,949.2503105,2378.5,61.93,68.96,59.58,67.66042805,-0.001538775,-0.0011822,0,0.045538911
302,-33,0.9,1,30.68181818,-9584.847318,-22105.23497,-272.4277479,1529.311166,1220.3207,-2958.027686,-6008.474049,-6688.599384,-866.9190225,-1416.01795,1046.533383,2354.78125,61.93,68.95955774,59.58059841,67.70454454,0,-0.000442265,0.000598412,0.044116486
302,-33,0.9,1,31.25,-11092.68685,-25662.18061,-417.5611445,1798.001513,1622.177843,-3433.72444,-6088,-7160,-812,-1487,1090,2344,61.93,68.91899798,59.62285365,67.7511655,0,-0.040559754,0.042255241,0.046620965
302,-33,0.9,1,31.81818182,-11676,-28524,-576,1902,1778,-3691,-5533,-8753.88644,-338.4192936,-1572.647905,1092.165323,2419.5,61.92269084,68.84556417,59.64,67.80002202,-0.007309155,-0.073433813,0.017146346,0.048856517
302,-33,0.9,1,32.38636364,-8535.523247,-31240.07743,-777.5200871,913,744.5,-3769.780425,-4978,-10344,184,-1666,1093,2495,61.87679589,68.73571237,59.64,67.85070134,-0.045894953,-0.109851802,0,0.050679322
302,-33,0.9,1,32.95454545,-4464,-32768,-1042,-76,-289,-3846,-5450.1875,-10808.03113,329.4874331,-1768.755789,1077.0625,2477.089074,61.84731152,68.67330643,59.64,67.89063321,-0.029484371,-0.062405935,0,0.039931869
302,-33,0.9,1,33.52272727,-2708.329645,-30867.55556,-1442.035202,-43.33333333,-222.8518519,-4052.686963,-6489,-11159.47211,439.7110517,-1880.838479,1042,2428.654198,61.82093561,68.62810809,59.64,67.93631006,-0.026375908,-0.045198346,0,0.045676849
302,-33,0.9,1,34.09090909,-1180.601071,-26116.44444,-1993.769503,38.33333333,-57.48148148,-4397.350423,-7527.8125,-11382.17704,509.5791444,-1971.00193,1006.9375,2357.642223,61.80336859,68.58715839,59.64,68.03577134,-0.01756702,-0.040949699,0,0.099461282
302,-33,0.9,1,34.65909091,96.5409505,-19940,-2597.118018,144.5,157.5,-4801.70192,-8000,-11460,534,-2008,991,2272,61.8,68.53655109,59.64664689,68.1135111,-0.003368593,-0.050607292,0.006646892,0.077739763
302,-33,0.9,1,35.22727273,1100.45165,-13763.55556,-3151.995862,250.6666667,372.4814815,-5187.452989,-7936.295474,-11192.05594,483.636789,-1923.182658,1021.965015,2119.212093,61.8,68.48237302,59.69185199,68.16056015,0,-0.054178072,0.045205096,0.047049047
302,-33,0.9,1,35.79545455,1808.486257,-9012.444444,-3558.318151,332.3333333,537.8518519,-5476.31517,-7754.916885,-10446.47219,338.2042626,-1701.098657,1101.822157,1858.140742,61.8,68.48,59.735512,68.21734933,0,-0.002373023,0.04366001,0.056789179
302,-33,0.9,1,36.36363636,2198,-7112,-3716,365,604,-5590,-7470.46672,-9310.621369,106.1880808,-1390.300031,1211.014577,1513.799309,61.79932617,68.47910156,59.76,68.25,-0.000673828,-0.000898437,0.024488002,0.032650669
302,-33,0.9,1,36.93181818,2409.242933,-7153.078125,-3618.397231,358.2699319,580.1817353,-5403.263076,-7097.547464,-7871.876111,-203.9260964,-1039.338817,1329.985423,1111.201155,61.75391602,68.41855469,59.76,68.25,-0.045410156,-0.060546875,0,0
302,-33,0.9,2,37.5,2596.668187,-7261.375,-3355.826221,340.1129808,516.8998781,-4904.294832,-6650.761601,-6217.609044,-583.6526089,-696.7670503,1439.177843,675.3596445,61.74,68.4,59.76,68.26004478,-0.013916016,-0.018554688,0,0.010044779
302,-33,0.9,2,38.06818182,2758.935611,-7414.484375,-2973.642914,313.5790264,426.4138338,-4184.95906,-6144.711618,-4435.192797,-1024.505797,-411.136766,1519.034985,231.2881386,61.74,68.4,59.76,68.31048239,0,0,0,0.050437614
302,-33,0.9,2,38.63636364,2894.705055,-7590,-2517.203256,281.7179487,320.9830081,-3337.119552,-5594,-2612,-1518,-231,1550,-196,61.74,68.36352534,59.76,68.35668919,0,-0.036474659,0,0.046206796
302,-33,0.9,2,39.20454545,3002.636367,-7765.515625,-2031.86319,247.5796274,212.8668064,-2452.640101,-4519.632038,95.10839248,-2697.511141,-141.4432205,1106.752,-632.6906438,61.74,68.32,59.76,68.40484832,0,-0.043525341,0,0.048159133
302,-33,0.9,2,39.77272727,3081.389396,-7918.625,-1562.978663,214.2139423,114.3246342,-1623.384497,-2779.346043,3926.536942,-4762.550033,-80.97685547,49.776,-1109.68153,61.74,68.32,59.76,68.45458372,0,0,0,0.049735393
302,-33,0.9,2,40.34090909,3129.62399,-8026.921875,-1155.905618,184.6707732,37.61589686,-941.2165324,-892.8440285,7890.811294,-7053.833356,-28.28888019,-1211.776,-1609.027095,61.738151,68.31590372,59.76,68.50529768,-0.001849001,-0.004096275,0,0.050713961
302,-33,0.9,2,40.90909091,3146,-8068,-856,162,-5,-498,620.1719905,10996.4571,-8912.077785,37.93273006,-2268.752,-2112.781773,61.7250703,68.29114797,59.76,68.55513576,-0.013080696,-0.02475575,0,0.049838084
302,-33,0.9,2,41.47727273,3094.297421,-8056.444444,-645.9291767,142.9042023,-25.69653343,-207.0373478,1240,12252,-9678,139,-2712,-2603,61.70328227,68.26211785,59.76,68.61129749,-0.021788034,-0.029030124,0,0.056161732
302,-33,0.9,2,42.04545455,2954.240637,-8027.555556,-468.7110395,123.2507123,-44.31822946,68.47663925,867.0810689,10319.68,-8411.904,397.3583122,-2703.586935,-3092.411745,61.67688461,68.25,59.76,68.67198817,-0.026397658,-0.012117851,0,0.060690678
302,-33,0.9,2,42.61363636,2748.406074,-7990,-310.2273209,104.8365385,-60.11225611,311.8396644,-28.83679342,5711.84,-5392.752,846.322007,-2678.640804,-3592.993458,61.62338848,68.25,59.76,68.7136788,-0.053496128,0,0,0.041690634
302,-33,0.9,2,43.18181818,2499.370162,-7952.444444,-156.3597531,89.45868946,-72.3257814,506.3494307,-1113.49519,212.16,-1789.248,1373.506546,-2637.601205,-4085.669299,61.61,68.25,59.76080312,68.72,-0.013388482,0,0.000803122,0.006321195
302,-33,0.9,2,43.75,2229.709328,-7923.555556,7.009931277,78.91417379,-80.20597335,635.3036415,-2052.635725,-4395.68,1229.904,1866.52739,-2580.907738,-4551.363426,61.61,68.25,59.76682185,68.72,0,0,0.00601873,0
302,-33,0.9,2,44.31818182,1962,-7912,194,75,-83,682,-2512,-6328,2496,2213,-2509,-4971,61.61,68.25,59.77782113,68.72,0,0,0.010999283,0
302,-33,0.9,2,44.88636364,1577.685289,-7982,444.995295,122.4774775,-65.59074733,648.7000983,-2584.690001,-5864.626793,1815.412203,2411.42206,-2262.211368,-5319.752692,61.61,68.25204802,59.79271765,68.72,0,0.002048017,0.01489652,0
302,-33,0.9,2,45.45454545,1135.509311,-8112,716.31969,211.2882883,-24.18149466,568.73353,-2627.119992,-4850.58692,413.4910722,2567.797243,-1792.779407,-5634.783707,61.61,68.30964171,59.8104281,68.72,0,0.057593697,0.017710441,0
302,-33,0.9,2,46.02272727,924,-8182,896,261,25,472,-2700,-3850,-750,2731,-1269,-5990,61.61,68.40311477,59.8373725,68.73165584,0,0.093473055,0.026944405,0.011655843
302,-33,0.9,2,46.59090909,1154,-7846,964,263,87,344,-2926,-3058,-1336,2922,-693,-6448,61.61,68.47377174,59.87810861,68.78938688,0,0.070656967,0.040736108,0.057731036
302,-33,0.9,2,47.15909091,1272,-8184,1342,275,77,321,-3156,-3154,-1510,3004,-278,-6781,61.61283607,68.49696138,59.88,68.84969994,0.002836074,0.023189644,0.001891392,0.06031306
302,-33,0.9,2,47.72727273,1390.208155,-8022,1524.414629,242.4246862,41.88898712,293.8041602,-2891.973876,-3493.265613,-1449,3084.985836,51.03571429,-7023.222873,61.62277986,68.51574863,59.88229595,68.87794565,0.009943791,0.018787245,0.00229595,0.028245709
302,-33,0.9,2,48.29545455,1456,-7860,1604,183,-16,255,-2444,-4082,-1388,3149,220,-7144,61.63710632,68.53159151,59.92748219,68.82877338,0.01432646,0.015842889,0.045186241,-0.049172266
302,-33,0.9,2,48.86363636,972,-7924,1310,121,-97,171,-2066,-5028,-1482,3182,-73,-7100,61.65289368,68.54420976,59.94,68.7751934,0.01578735,0.01261825,0.01251781,-0.053579983
302,-33,0.9,2,49.43181818,408,-7906,980,104,-90,53,-2206,-5598,-1714,3245,-438,-7035,61.66722014,68.55332309,59.94,68.72487693,0.01432646,0.009113326,0,-0.050316471
302,-33,0.9,2,50,-181.3042453,-7919.125,1079.6875,81.32912989,-83.2716069,-148.8736965,-2366.917778,-6010.97701,-1666.469231,3295.186652,-926.6403347,-6947.044495,61.67716393,68.55865121,59.96462496,68.66680828,0.009943791,0.005328117,0.024624959,-0.058068644
302,-33,0.9,3,50.56818182,-797.6037736,-7948,1299,53.80075662,-76.71448114,-427.9008505,-2558,-6312,-1566,3321,-1379,-6867,61.67983868,68.55861115,60.00758095,68.64084592,0.002674754,-4.01E-05,0.042955988,-0.025962359
302,-33,0.9,3,51.13636364,-1283.101415,-7976.875,1518.3125,19.37200504,-67.30011481,-759.2275792,-2803.06408,-6467.510837,-1404.646992,3288.015927,-1719.709993,-6817.528,61.67456237,68.51573783,60.05344262,68.66404207,-0.005276305,-0.042873325,0.045861674,0.023196149
302,-33,0.9,3,51.70454545,-1480,-7990,1618,-24,-52,-1118,-3106,-6644,-1194,3212,-1894,-6782,61.66296682,68.43051047,60.09763119,68.69925926,-0.011595558,-0.08522736,0.044188569,0.035217186
302,-33,0.9,3,52.27272727,-214,-7860,1540,-98,9,-1553,-3518.345966,-7186.354679,-960.8041085,3044.535394,-1843.028364,-6763.687467,61.64659326,68.32683058,60.11978119,68.71978407,-0.016373555,-0.103679891,0.022150002,0.020524807
302,-33,0.9,3,52.84090909,712,-7818,1510,-131,-2,-1723,-3936,-8050,-740,2803,-1761,-6739,61.62698297,68.22859966,60.08735599,68.72,-0.019610296,-0.098230916,-0.032425197,0.000215933
302,-33,0.9,3,53.40909091,656.048,-7825.904,1536.832,-176.1162432,-21.25496936,-1875.713972,-4234,-9244,-586,2538,-1702,-6582,61.60479744,68.15815511,60.06229595,68.72,-0.022185521,-0.070444551,-0.025060045,0
302,-33,0.9,3,53.97727273,522.624,-7844.752,1600.816,-230.7435172,-48.34385546,-2016.92618,-3958,-9782,-290,2380,-1600,-6453,61.56571754,68.10083466,60.10748219,68.72,-0.039079908,-0.057320446,0.045186241,0
302,-33,0.9,3,54.54545455,363.376,-7867.248,1677.184,-287.6126695,-81.30525687,-2157.181401,-3770,-10498,-12,2208,-1545,-6115,61.53915936,68.09539708,60.11809485,68.71628823,-0.026558179,-0.005437588,0.010612655,-0.003711773
302,-33,0.9,3,55.11363636,229.952,-7886.096,1741.168,-339.4545479,-118.1777722,-2307.024415,-4070,-10798,86,2135,-1483,-5898,61.51856823,68.13243273,60.10464904,68.68874839,-0.020591128,0.037035658,-0.013445803,-0.027539835
302,-33,0.9,3,55.68181818,174,-7894,1768,-379,-157,-2477,-4606,-10886,390,2018,-1261,-5609,61.50083364,68.19081052,60.08234577,68.63917427,-0.017734585,0.058377789,-0.022303275,-0.049574119
302,-33,0.9,3,56.25,178,-7452,1406,-404,-204,-2690,-4628,-10708,738,1918,-1006,-5393,61.4876392,68.25415459,60.05597284,68.57331079,-0.013194441,0.063344066,-0.026372925,-0.06586348
302,-33,0.9,3,56.81818182,924,-7422,834,-429,-102,-3080,-4300,-10328,992,1737,-540,-4977,61.4806685,68.30608908,60.03031809,68.49690287,-0.006970698,0.051934489,-0.025654751,-0.07640792
302,-33,0.9,3,57.38636364,1712,-7130,358,-380,-175,-3243,-4010,-10082,920,1629,-228,-4682,61.48,68.33702544,60.01016934,68.41569544,-0.000668504,0.030936368,-0.020148755,-0.081207437
302,-33,0.9,3,57.95454545,2802,-7498,952,-353,-20,-3325,-3542.067127,-10011.26708,701.0174881,1529.23578,114.4844521,-4307.206247,61.48,68.36509893,60.0003144,68.3354334,0,0.028073489,-0.009854936,-0.080262032
302,-33,0.9,3,58.52272727,3914,-7116,1276,-336,-153,-3261,-2990,-9944,532,1455,472,-3935,61.48,68.39202413,60,68.24848079,0,0.026925195,-0.0003144,-0.086952611
302,-33,0.9,3,59.09090909,3827.125,-7142.5625,1259.571429,-374.3043517,-209.8875846,-3175.040243,-2391.489459,-9728.514057,586.4444444,1420.014241,851.6382777,-3633.124156,61.48,68.41691202,60,68.15122677,0,0.024887887,0,-0.097254023
302,-33,0.9,3,59.65909091,3636,-7201,1216.857143,-463.3116046,-249.984821,-3073.95789,-1779.015965,-9381.483497,687.5555556,1395.792561,1237.578286,-3361.173017,61.48,68.43887358,60,68.05715787,0,0.021961563,0,-0.094068905
302,-33,0.9,3,60.22727273,3444.875,-7259.4375,1157.714286,-564.1630552,-280.5896469,-2974.146592,-1346,-9028,742,1364,1574,-3109,61.48,68.4570198,60,67.96287938,0,0.018146224,0,-0.09427848
302,-33,0.9,3,60.79545455,3358,-7286,1092,-638,-309,-2892,-1116.249404,-8651.447661,591.9627426,1307.215487,1856.591693,-2875.013439,61.48,68.47046167,60,67.86856635,0,0.013441869,0,-0.094313036
302,-33,0.9,3,61.36363636,3681.328409,-7170.329897,975.5714286,-675.5369351,-333.6356888,-2835.203615,-956,-8380,356,1240,2072,-2660,61.48,68.47831017,60,67.77439377,0,0.0078485,0,-0.094172574
302,-33,0.9,3,61.93181818,4072,-7014,892,-711,-359,-2780,-842,-8312,198,1177,2195,-2464,61.48285772,68.4782414,60,67.68053668,0.002857724,-6.88E-05,0,-0.093857092
302,-33,0.9,3,62.5,4158.252195,-6962.749236,923,-763.0732809,-397.3294875,-2706.935386,-1060.747331,-8399.841463,215.8932584,1117.892048,2209.373262,-2134.546513,61.52248219,68.45385711,60,67.58717009,0.039624466,-0.024384287,0,-0.093366591
302,-33,0.9,3,63.06818182,4238,-6898,954,-817,-442,-2627,-1350,-8606,268,1040,2214,-1732,61.5779829,68.41970283,59.99641881,67.49307936,0.055500712,-0.034154285,-0.003581194,-0.094090728
302,-33,0.9,3,63.63636364,4432,-6544,526,-860,-488,-2547,-1454,-9068,558,868,2149,-1314,61.60966924,68.40020354,59.97668279,67.39385583,0.031686342,-0.019499288,-0.019736021,-0.099223534
302,-33,0.9,3,64.20454545,4086,-6300.88604,338.4480578,-866.7384319,-523.1658768,-2539.391304,-1436.674452,-9334.680556,842.9126719,716.389674,2130.958541,-988.6002492,61.61,68.43189377,59.94410282,67.2916332,0.000330755,0.031690232,-0.032579964,-0.102222633
302,-33,0.9,3,64.77272727,3740,-6182,178,-869,-541,-2537,-1386.460015,-9535.006944,1103.789669,570.7465611,2119.812604,-704.5610368,61.61,68.51606693,59.90371575,67.18923338,0,0.084173153,-0.040387067,-0.102399814
302,-33,0.9,3,65.34090909,3872,-7440,-62,-804,-500,-2590,-1306,-9614,1218,400,2116,-436,61.61,68.60964429,59.86055842,67.08947831,0,0.093577366,-0.04315733,-0.099755077
302,-33,0.9,3,65.90909091,4113.717432,-7301.555556,220.2717501,-755.8665536,-532.8981481,-2577.221368,-1030,-9444,1070,166,2159,-181,61.61163035,68.68243549,59.81966767,66.99518988,0.001630353,0.072791194,-0.040890751,-0.094288422
302,-33,0.9,3,66.47727273,4459.277581,-7044.444444,759.4323892,-716.3777212,-607.3518519,-2543.998291,-721.0040758,-9393.742651,1034.248705,18.15002026,2211.08004,88.3783155,61.620347,68.76045751,59.78608034,66.90919003,0.008716643,0.078022026,-0.033587332,-0.08599985
302,-33,0.9,3,67.04545455,4868,-6906,1094,-700,-687,-2498,-440,-9342,1004,-92,2242,365,61.63403066,68.84110318,59.76483327,66.83430067,0.013683669,0.080645665,-0.021247073,-0.07488936
302,-33,0.9,3,67.61363636,5404,-7488,1144,-756,-764,-2408,-220.6381187,-9037.393713,910.2347826,-175.649921,2230.431862,656.7922569,61.64975958,68.91687637,59.76,66.77320447,0.015728914,0.075773193,-0.004833268,-0.061096207
302,-33,0.9,3,68.18181818,5474,-8458,1132,-820,-868,-2249,-68,-8776,840,-246,2200,928,61.66461196,68.98028098,59.76,66.72417579,0.014852381,0.063404609,0,-0.049028674
302,-33,0.9,3,68.75,4820,-8234.363636,1009.040503,-856.3223938,-828.1298343,-2254.344697,0,-8812,864,-311,2096,1137,61.67566603,69.02382089,59.76,66.68161522,0.011054067,0.043539914,0,-0.042560572
302,-33,0.9,3,69.31818182,4166,-7802,752,-873,-766,-2266,-110.0624037,-8969.5,826.1166134,-365.2400655,1901.486497,1400.116876,61.68,69.04,59.76,66.64,0.004333973,0.016179107,0,-0.041615221
302,-33,0.9,3,69.88636364,4600.677003,-7235.383172,136.5766087,-785.1678082,-716.321973,-2293.655303,-292,-9100,774,-406,1631,1672,61.68,69.04,59.76,66.59895483,0,0,0,-0.041045167
302,-33,0.9,3,70.45454545,5206,-6654,-450,-667,-687,-2315,-434,-9018,752,-428,1270,1908,61.68,69.04186326,59.76,66.5573895,0,0.001863261,0,-0.041565329
302,-33,0.9,3,71.02272727,5545.322997,-6176.253191,-650.7573925,-619.2985506,-685.0939674,-2282.018676,-475.9950912,-8820.718551,738.5722574,-436.8373455,963.2729339,2043.531619,61.68,69.06746362,59.76,66.51726172,0,0.025600356,0,-0.040127783
302,-33,0.9,3,71.59090909,5714,-5922,-736,-581,-683,-2228,-492,-8556,724,-445,752,2106,61.68,69.10241367,59.76,66.47407215,0,0.034950051,0,-0.043189569
302,-33,0.9,3,72.15909091,5686,-6560,-356,-540,-650,-2187,-460.3870968,-8278.564884,696.9416667,-460.7686606,655.3382411,2058.579151,61.68,69.12,59.76,66.42,0,0.017586332,0,-0.054072152
302,-33,0.9,3,72.72727273,5226,-7010,594,-506,-614,-2188,-380,-8012,656,-481,602,1968,61.68,69.12,59.72214126,66.31482062,0,0,-0.037858742,-0.105179376
302,-33,0.9,3,73.29545455,5328.116012,-6810.17344,592.9917149,-512.0326797,-652.0534576,-2208.185185,-140,-7810,586,-504,582,1860,61.67354004,69.13476563,59.7,66.27,-0.006459961,0.014765625,-0.022141258,-0.044820624
302,-33,0.9,3,73.86363636,5558.232024,-6357.902435,589.3167631,-526.7320261,-736.3291374,-2243.925926,130.3122642,-7850,498.760989,-549.7048566,527.7496667,1695.277083,61.61645996,69.26523438,59.7,66.27,-0.057080078,0.13046875,0,0
302,-33,0.9,3,74.43181818,5802,-5874,582,-545,-822,-2263,404,-7890,412,-592,450,1508,61.61,69.24190301,59.7,66.24647462,-0.006459961,-0.02333136,0,-0.023525377
302,-33,0.9,3,75,6032,-5406,196,-571,-895,-2189,717.9980806,-7829,326.0746753,-612.5932203,385.161087,1289.125356,61.61,69.12983137,59.7,66.20062414,0,-0.112071647,0,-0.04585048
302,-33,0.9,3,75.56818182,6015.38502,-4612.700213,-396.2131354,-627.8588676,-916.7132153,-2141.863302,902,-7768,278,-622,271,1158,61.61,69.00884617,59.6644043,66.2,0,-0.1209852,-0.035595703,-0.000624143
302,-33,0.9,3,76.13636364,5974,-4088,-776,-698,-925,-2105,-295,-10697,3485,-54,-3339.654656,1218.727204,61.61645996,68.96440732,59.64,66.19261719,0.006459961,-0.044438848,-0.024404297,-0.007382812
302,-33,0.9,3,76.70454545,5749.759965,-4688.439066,-526.5925926,-753.9966472,-920.9280067,-2067.007182,-1492,-13626,6692,514,-6863,1403,61.67354004,69.01972338,59.64,66.12738281,0.057080078,0.055316064,0,-0.065234375
302,-33,0.9,3,77.27272727,5385.213316,-6002.65591,-63.40740741,-808.7818288,-912.6337911,-2032.836924,7476,-10474,2170,-1,-3553,2729,61.68,69.10417424,59.64,66.12,0.006459961,0.084450859,0,-0.007382812
302,-33,0.9,3,77.84090909,5194,-7300,186,-878,-906,-2018,6817.944534,-9697.007342,2344.740741,-331.7040578,-3870.851852,2601.962963,61.68,69.2,59.64,66.12,0,0.095825757,0,0
302,-33,0.9,3,78.40909091,5480,-8328,132,-988,-903,-2162,5084.777956,-9298.927192,2669.259259,-593.3153103,-4461.148148,2366.037037,61.68,69.24555846,59.64,66.12,0,0.045558459,0,0
302,-33,0.9,3,78.97727273,5942,-9328,14,-981,-909,-2223,2638,-8470,2844,-812,-4779,2239,61.68,69.30455121,59.64,66.12,0,0.05899275,0,0
302,-33,0.9,3,79.54545455,5790,-9182,420,-937,-815,-2314,-2464,-4216,1228,-988,-3069,2358,61.68,69.41544879,59.64,66.12,0,0.110897582,0,0
302,-33,0.9,3,80.11363636,6217.259259,-8816.302139,185.6296296,-947.8699187,-822.5182404,-2369.934739,-5052,-32768,3922,-222,-580,2819,61.70214126,69.48507998,59.64,66.14952168,0.022141258,0.069631192,0,0.029521677
302,-33,0.9,3,80.68181818,7010.740741,-8340.373292,-249.6296296,-972.7398374,-843.1475919,-2412.856258,-489,-23604.73473,3377.087548,-211.975522,29.56131605,2397,61.74,69.52,59.64,66.2,0.037858742,0.034920017,0,0.050478323
302,-33,0.9,3,81.25,7438,-8104,-484,-1000,-874,-2430,4074,-11924,2314,-202,252,1975,61.74,69.52,59.64,66.2,0,0,0,0
302,-33,0.9,3,81.81818182,7350,-8728,-246,-1028,-953,-2216,1230,-8362,966,398,68,2448,61.7456666,69.52,59.64,66.2,0.005666599,0,0,0
302,-33,0.9,3,82.38636364,6626,-9196,54,-1039,-986,-2091,3064,-5654,-3058,-1374,344,2173,61.78732061,69.52,59.64,66.2,0.041654011,0,0,0
302,-33,0.9,3,82.95454545,6482.264419,-9492.723964,192.4247788,-1034.536232,-1012.400862,-2019.507113,2540.907033,-6347.777778,-2978.393164,-1116.381679,71.77777778,2531.296296,61.83503781,69.49047832,59.66214126,66.22583147,0.047717202,-0.029521677,0.022141258,0.025831468
302,-33,0.9,3,83.52272727,6432,-9634,252,-1023,-1026,-1944,1208.925178,-7636.222222,-2747.675217,-594.7633588,-433.7777778,3196.703704,61.87,69.44,59.7,66.27,0.034962188,-0.050478323,0.037858742,0.044168532
302,-33,0.9,3,84.09090909,6548,-9334.078021,1.250929368,-958.4637681,-810.9439828,-1810.050939,-576,-8330,-2378,-186,-706,3555,61.87,69.44,59.7,66.27,0,0,0,0
302,-33,0.9,3,84.65909091,6664,-8644,-374,-901,-507,-1596,-4760.187079,-7855,-616.7052486,35.67938931,-369.905826,3229.425101,61.87,69.44,59.6915978,66.27,0,0,-0.008402198,0
302,-33,0.9,3,85.22727273,6452,-7196,-588,-909,-365,-1148,-7998,-7380,2076,144,66,2627,61.87,69.44,59.64494606,66.27,0,0,-0.04665174,0
302,-33,0.9,3,85.79545455,5820,-6192,-780,-907,-314,-865,-6988,-7834,4434,37,210,1972,61.87,69.40746094,59.64,66.27,0,-0.032539062,-0.004946061,0
302,-33,0.9,4,86.36363636,5453.120235,-5028.279851,-1250.466773,-886.3939276,-183.9192892,-651.9789083,-3892,-7890,3416,-310,313,1383,61.87,69.36071331,59.64,66.26937586,0,-0.046747632,0,-0.000624143
302,-33,0.9,4,86.93181818,5177.004562,-3889.251036,-1858.56672,-838.6683583,-13.68186684,-465.2309187,-2984,-8020,1482,-402,214,1188,61.87,69.41311385,59.64,66.22352538,0,0.052400549,0,-0.04585048
302,-33,0.9,4,87.5,5068,-3376,-2160,-775,71,-251,-2280.448226,-7987.585821,822.5490235,-319.5,47.15744143,1085.280864,61.87,69.44,59.63446289,66.2,0,0.026886145,-0.005537109,-0.023525377
302,-33,0.9,4,88.06818182,5646,-3385,-1896.920594,-628.5214541,-16.5,14.53302721,-1922,-7950,562,-237,-63,990,61.87,69.44,59.58553711,66.2,0,0,-0.048925781,0
302,-33,0.9,4,88.63636364,6224,-3394,-1450,-516,-104,346,-1993.25,-7940.744403,634.1875,-244.65625,-30.96875,815.9346008,61.87,69.44,59.58,66.16746094,0,0,-0.005537109,-0.032539062
302,-33,0.9,4,89.20454545,6019.740827,-2256.401445,-988.4374618,-529.3103585,-102.0890375,759.8258785,-2150,-7933.828358,793,-261.5,39.5,590.8029785,61.87059841,69.44,59.57940159,66.12,0.000598412,0,-0.000598412,-0.047460938
302,-33,0.9,4,89.77272727,5561.703876,124.7526658,-516.4409531,-566.1762725,-95.06696386,1283.368011,-2306.75,-7929.498134,951.8125,-278.34375,109.96875,396.0198669,61.91285365,69.44,59.53714635,66.12,0.042255241,0,-0.042255241,0
302,-33,0.9,4,90.34090909,5082,2202,-300,-622,-81,1973,-2378,-7928,1024,-286,142,313,61.93,69.44,59.52,66.12,0.017146346,0,-0.017146346,0
302,-33,0.9,4,90.90909091,4642,3402,-1338,-772,1098,3151,-2043,-7982,738,-212.5551331,52.5,337.5,61.93,69.44,59.52,66.12,0,0,0,0
302,-33,0.9,4,91.47727273,3454.763409,1195.698875,-1995.224038,-695.739576,1800.994704,2948.5,-1708,-8036,452,-110,-37,362,61.93,69.44,59.52,66.14952168,0,0,0,0.029521677
302,-33,0.9,4,92.04545455,2150,-1904,-2308,-514,2129,2746,-2262,-7960.685567,906,-51.94486692,-17.24214145,301.5819879,61.93,69.44,59.52,66.2,0,0,0,0.050478323
302,-33,0.9,4,92.61363636,1288.851109,-3697.698875,-1294.724762,117.239576,1675.708236,2916.540111,-2816,-7884,1360,-23,9,223,61.93,69.4946875,59.52,66.2,0,0.0546875,0,0
302,-33,0.9,4,93.18181818,854,-4598,180,643,1094,3254,-2747.154199,-7881.620948,1358.752,-23.5053262,20.18167476,188.206111,61.9409375,69.52,59.52,66.20753794,0.0109375,0.0253125,0,0.007537942
302,-33,0.9,4,93.75,927.2245532,-4410.110236,1144.47365,608,894.8208289,3699.26804,-2569.222597,-7879.913567,1355.776,-24.99597861,28.62274531,157.7718749,61.99699219,69.52,59.52,66.26005142,0.056054687,0,0,0.052513481
302,-33,0.9,4,94.31818182,1107.115773,-4058.220472,1968.792381,543,758.196954,4269.30971,-2325.113895,-7878.795711,1352.224,-27.43396791,35.57297848,133.6345832,62,69.52,59.52,66.31663805,0.003007813,0,0,0.056586623
302,-33,0.9,4,94.88636364,1334,-3860,2318,508,605,4817,-2057.736795,-7878.185237,1349.248,-30.78130481,42.2821411,117.7315277,62,69.52159577,59.52059841,66.34920212,0,0.001595766,0.000598412,0.032564072
302,-33,0.9,4,95.45454545,1756.884227,-3846.890639,1433.407407,591.4107612,375.148322,5287.921574,-1810,-7878,1348,-35,50,112,62,69.63427641,59.56285365,66.2928618,0,0.112680643,0.042255241,-0.056340322
302,-33,0.9,4,96.02272727,2300.775447,-3838.778653,-209.4074074,787.9326335,122.7586121,5739.194527,-1528.083744,-7892,1385.234694,-48.15946256,61.159699,150.2658598,62.009375,69.68,59.58,66.27,0.009375,0.04572359,0.017146346,-0.022861795
302,-33,0.9,4,96.59090909,2570,-3836,-1094,1017,-60,6191,-1322,-7906,1430,-66,68,222,62.05742188,69.68,59.58,66.27,0.048046875,0,0,0
302,-33,0.9,4,97.15909091,2193.060797,-3875.972414,-1026.079637,1315.289039,-172.305005,6690.244599,-1276,-7884,1440,-79,52,303,62.06,69.68,59.58,66.23808467,0.002578125,0,0,-0.031915327
302,-33,0.9,4,97.72727273,1578,-3974,-872,1601,-226,7110,-1304.518519,-7888.148148,1557.178438,-109.9473089,58.45454545,393.6327026,62.06009947,69.67979646,59.57984734,66.2001781,9.95E-05,-0.000203542,-0.000152656,-0.037906574
302,-33,0.9,4,98.29545455,1003.6112,-4257.576458,-454.2073495,1780.012975,-102.6228669,7394.904044,-1357.481481,-7895.851852,1757.70033,-158.3723074,70.90909091,490.946832,62.07060878,69.66029717,59.56522288,66.21723998,0.010509313,-0.019499288,-0.014624466,0.017061877
302,-33,0.9,4,98.86363636,662,-4706,-102,1890,141,7555,-1386,-7900,1864,-213,79,594,62.09346467,69.62614289,59.53960716,66.24712497,0.022855885,-0.034154285,-0.025615713,0.029884999
302,-33,0.9,4,99.43181818,656,-5246,-78,1927,461,7586,-1318,-7888,1782.922414,-281.272677,80.50426136,707.3133386,62.12159176,69.6017586,59.52131895,66.26846123,0.02812709,-0.024384287,-0.018288215,0.021336251
302,-33,0.9,4,100,1308,-5860,-522,1959,1057,7609,-1250,-7876,1644,-345,82,823,62.16050499,69.6,59.5444043,66.27,0.038913239,-0.0017586,0.023085347,0.001538775
302,-33,0.9,1,0,1884.326206,-6281.656138,-686.4275592,1939.785757,1611.886903,7599.112336,-1320.826281,-7889,1493.077586,-384.9892308,86.21241014,938.9092718,62.19,69.60089844,59.58,66.27089844,0.029495005,0.000898437,0.035595703,0.000898437
302,-33,0.9,1,0.588235294,2431.254467,-6630.893429,-794.8804463,1892.793737,2137.211164,7570.335783,-1404,-7902,1400,-413,95,1036,62.19,69.66144531,59.58,66.33144531,0,0.060546875,0,0.060546875
302,-33,0.9,1,1.176470588,3024,-7000,-834,1834,2602,7524,-1420,-7874,1452,-429,126,1094,62.19,69.68,59.58,66.35,0,0.018554688,0,0.018554688
302,-33,0.9,1,1.764705882,3763.832164,-7409.838925,-448.4074724,1749.978386,3075.549216,7276.953265,-1378,-7839.583106,1312,-456.8928589,131.9769677,1207.752743,62.19,69.68,59.58,66.35,0,0,0,0
302,-33,0.9,1,2.352941176,4456,-7880,188,1645,3337,6938,-1336,-7796,1172,-478,136,1345,62.22082488,69.68,59.58,66.34392165,0.030824882,0,0,-0.006078345
302,-33,0.9,1,2.941176471,5031.806186,-8548.000756,722.0215729,1540.585974,3267.607599,6725.945753,-1504.384318,-7712.413636,1194.863915,-480.7358482,140.5329912,1465.21255,62.26412811,69.68,59.58,66.32192638,0.043303227,0,0,-0.021995272
302,-33,0.9,1,3.529411765,5529.791982,-9324.591587,1249.178775,1430.138249,3092.215197,6541.770555,-1698,-7654,1262,-484,148,1587,62.28317841,69.68,59.58,66.28859729,0.0190503,0,0,-0.033329098
302,-33,0.9,1,4.117647059,5742,-9960,1662,1314,2860,6348,-1730,-7676,1654,-553,187,1718,62.29902841,69.68,59.58,66.24893067,0.015849998,0,0,-0.039666617
302,-33,0.9,1,4.705882353,5707.715232,-10398.40562,1982.599634,1185.591378,2461.194892,6120.160803,-1989.832427,-7596.267206,1584.106218,-626.1386756,185,1828.828736,62.31092824,69.68,59.58,66.20792284,0.011899838,0,0,-0.041007831
302,-33,0.9,1,5.294117647,5618,-10720,2152,1059,1940,5897,-2414,-7504,1450,-691,183,1899,62.31812806,69.68,59.58,66.15216359,0.007199819,0,0,-0.055759249
302,-33,0.9,1,5.882352941,5318,-10914,2162,952,1425,5711,-2836,-7488,1288,-735,217,1917,62.32,69.67693873,59.57770405,66.12306127,0.001871937,-0.003061266,-0.00229595,-0.029102322
302,-33,0.9,1,6.470588235,4950,-10932,1916,840,505,5505,-2902,-7496,1322,-790,285,1916,62.32,69.61669041,59.53251781,66.18330959,0,-0.060248321,-0.045186241,0.060248321
302,-33,0.9,1,7.058823529,4754,-10746,1762,759,-105,5381,-2502,-7380,1402,-846,336,1952,62.32,69.6,59.52,66.2,0,-0.016690413,-0.01251781,0.016690413
302,-33,0.9,1,7.647058824,4410.518071,-10478.23682,1586.540207,703.4964715,-464.0973366,5149.912433,-2056.04017,-7458.814815,1373.457295,-900.0783444,365.3277075,2052.021914,62.32,69.6,59.52,66.2,0,0,0,0
302,-33,0.9,1,8.235294118,3922.335464,-10146.32109,1396.221355,650.491131,-793.968523,4811.569318,-1626.353418,-7605.185185,1303.136812,-951.2475979,387.3305204,2211.456472,62.32,69.56352534,59.52,66.210347,0,-0.036474659,0,0.010346996
302,-33,0.9,1,8.823529412,3351.997542,-9765.439836,1196.822267,602.1857715,-1085.129782,4399.512925,-1434,-7684,1214,-990,396,2376,62.31932617,69.52,59.52,66.23975958,-0.000673828,-0.043525341,0,0.029412583
302,-33,0.9,1,9.411764706,2762.049671,-9350.780078,994.1217658,560.7821858,-1328.097337,3947.285526,-1952,-7372,1080,-1013,344,2531,62.27391602,69.52,59.52,66.26566603,-0.045410156,0,0,0.025906447
302,-33,0.9,1,10,2215.037215,-8917.528839,793.8986726,528.4821667,-1513.387409,3488.429391,-2870.533333,-7215.474747,953.5144848,-998.4814815,369.4032342,2494.09381,62.26,69.51531854,59.50608398,66.27,-0.013916016,-0.004681457,-0.013916016,0.004333973
302,-33,0.9,1,10.58823529,1773.505536,-8480.873139,601.93181,507.4875072,-1631.516223,3056.486792,-3932.933333,-7103.070707,839.5350202,-971.5185185,423.6953573,2417.854287,62.26,69.48702626,59.46067383,66.27,0,-0.028292286,-0.045410156,0
302,-33,0.9,1,11.17647059,1500,-8056,424,500,-1673,2685,-4442,-7060,790,-957,474,2354,62.26,69.45384897,59.46,66.27,0,-0.033177285,-0.000673828,0
302,-33,0.9,1,11.76470588,1378,-7622,266,539,-1601,2381,-3808,-7090,990,-972,508,2321,62.25921387,69.44,59.46,66.270625,-0.000786133,-0.013848972,0,0.000625
302,-33,0.9,1,12.35294118,1092.647135,-7731.819646,128.7376837,603.5853011,-1515.664773,2057.17219,-3747.607207,-7187.581081,248,-951.7098214,481.5,2321.504785,62.20623535,69.44,59.46,66.32041667,-0.052978516,0,0,0.049791667
302,-33,0.9,1,12.94117647,762,-7966,56,646,-1425,1747,-3692,-7264,-494,-927,455,2323,62.19,69.44,59.46,66.37270531,-0.016235352,0,0,0.052288644
302,-33,0.9,1,13.52941176,476.6635161,-8477.180354,469.7777778,615.1315789,-1331.109749,1486.973959,-2928.115723,-7243.1,214,-919.2901786,465,2391.369793,62.19,69.44,59.46,66.41575747,0,0,0,0.043052159
302,-33,0.9,1,14.11764706,320,-8864,952,544,-1245,1238,-2218,-7188,922,-916,475,2530,62.15735599,69.40702626,59.46,66.45669459,-0.032644006,-0.032973743,0,0.040937124
302,-33,0.9,1,14.70588235,370,-8486,1040,394,-1181,973,-3724,-6998,486,-938,362,2734,62.13,69.34961124,59.46,66.49990026,-0.027355994,-0.057415021,0,0.043205671
302,-33,0.9,1,15.29411765,316.5322581,-8084.214286,740.4137931,293.9404923,-1224.161043,736.8544754,-4087.915293,-6990.744376,449.2750255,-967.8318226,451.7037037,2597.37037,62.13,69.29180541,59.46,66.55786892,0,-0.057805821,0,0.057968655
302,-33,0.9,1,15.88235294,250,-7856,316,240,-1288,534,-4306.846535,-6987.038855,434.5324956,-1002.798489,618.2962963,2343.62963,62.13,69.28,59.46,66.57,0,-0.011805414,0,0.012131081
302,-33,0.9,1,16.47058824,232,-7880,116,232,-1323,382,-4380,-6986,404,-1038,708,2207,62.13,69.28,59.46,66.57,0,0,0,0
302,-33,0.9,1,17.05882353,156.2985612,-7949.775648,265,226.3585526,-1313.772727,249.6543726,-4075,-7078.07635,180.2454295,-1080.4214,636,2350.5,62.13,69.24983037,59.46,66.59306818,0,-0.030169632,0,0.023068182
302,-33,0.9,1,17.64705882,94,-8010,414,222,-1295,120,-3770,-7276,-18,-1106,564,2494,62.12939264,69.18981905,59.46,66.65420525,-0.00060736,-0.060011316,0,0.061137065
302,-33,0.9,1,18.23529412,101,-8017.938114,330,218.0625,-1260.227273,-25.0377012,-4917,-7531.92365,74.52272727,-1076.47973,776.5,2377.507787,62.11113024,69.1310954,59.46,66.75689033,-0.0182624,-0.058723657,0,0.102685085
302,-33,0.9,1,18.82352941,108,-8026,246,216,-1235,-165,-6064,-8060,350,-1038,989,2237,62.07664384,69.06758548,59.47714635,66.82263807,-0.0344864,-0.063509914,0.017146346,0.065747733
302,-33,0.9,1,19.41176471,43.20276498,-8079.207419,253.6206897,217,-1286,-286.3466881,-5014,-11000,2100,-1025,967,2205,62.03841344,69.01053287,59.51940159,66.86565958,-0.0382304,-0.057052613,0.042255241,0.043021511
302,-33,0.9,1,20,-110,-8180,278,218,-1337,-392,-5044.179084,-10085.61349,1178.592593,-1055.333333,925.1266706,2271.37037,62.00891904,68.97118111,59.52,66.90699043,-0.0294944,-0.039351754,0.000598412,0.041330857
302,-33,0.9,1,20.58823529,-462,-8346,548,128,-1329,-476,-5121.469278,-8296.115872,-532.5925926,-1111.666667,867.1184752,2394.62963,62,68.96,59.52,66.94895921,-0.00891904,-0.011181114,0,0.041968777
302,-33,0.9,1,21.17647059,-762.3740775,-8485.793903,538,-21.20874401,-1250.055992,-504.4551206,-5226,-7062,-1454,-1142,807,2461,62,68.96,59.52,66.99657627,0,0,0,0.047617058
302,-33,0.9,1,21.76470588,-1002,-8650,528,-157,-1125,-519,-5416,-6732,-1102,-956,748,2408,62,68.96,59.52,67.0469475,0,0,0,0.050371234
302,-33,0.9,1,22.35294118,-1154,-8946,532,-217,-1016,-525,-5388,-6252,-474,-937,769,2413,62,68.96,59.52,67.08947946,0,0,0,0.042531956
302,-33,0.9,1,22.94117647,-1205.624365,-8838.150142,412,-212.1454608,-914.840799,-561.3300334,-5680,-7846,158,-941,808,2405,61.95847168,68.96,59.52,67.09,-0.04152832,0,0,0.000520542
302,-33,0.9,1,23.52941176,-1226,-8594,292,-198,-860,-615,-5514,-8164,456,-941,798,2371,61.93,68.96,59.52,67.09851965,-0.02847168,0,0,0.008519648
302,-33,0.9,1,24.11764706,-1074,-8108,422,-119,-936,-659,-5718.0625,-7503.0625,218.0924349,-941.3870192,811.59375,2336.342323,61.93,68.96,59.52,67.19548718,0,0,0,0.09696753
302,-33,0.9,1,24.70588235,-1076.049629,-8154.947583,538.3919943,-89.98065582,-1032.083366,-700.1782796,-6167,-6049,-307.753507,-942.6153846,841.5,2301.383652,61.93,68.94144531,59.52,67.27325314,0,-0.018554687,0,0.077765966
302,-33,0.9,1,25.29411765,-1081.654813,-8272.117388,644.811344,-70.8792168,-1129.486128,-739.7447411,-6615.9375,-4594.9375,-839.7226954,-944.7860577,871.40625,2259.233155,61.93,68.88089844,59.52,67.31946599,0,-0.060546875,0,0.046212843
302,-33,0.9,1,25.88235294,-1090,-8424,726,-64,-1174,-778,-6820,-3934,-1096,-948,885,2203,61.93,68.88,59.55264401,67.32,0,-0.000898437,0.032644006,0.000534013
302,-33,0.9,1,26.47058824,-1134.061877,-8728.163931,789.8366022,-116.7456341,-1134.438037,-811.2415314,-6315.626364,-4319.502157,-1116.123246,-982.1732168,877.6333333,2067.607143,61.93,68.8834375,59.58,67.32240436,0,0.0034375,0.027355994,0.002404361
302,-33,0.9,1,27.05882353,-1218.721668,-9192.701272,847.7436464,-234.7383575,-1032.501433,-840.8608876,-5782,-5132,-1124,-1046,859,1965,61.93,68.9475,59.58,67.37687343,0,0.0640625,0,0.054469065
302,-33,0.9,1,27.64705882,-1301.020626,-9617.887977,889.7788674,-357.6119022,-893.3141117,-874.7998,-5750.411372,-6616.772271,-959.4839939,-1125.909887,781.9224607,1967.675911,61.91101563,68.9180946,59.58,67.42611563,-0.018984375,-0.029405395,0,0.049242208
302,-33,0.9,1,28.23529412,-1338,-9804,906,-425,-742,-921,-5720,-8106,-564,-1223,690,1976,61.87,68.8,59.58,67.46457278,-0.041015625,-0.118094605,0,0.038457143
302,-33,0.9,1,28.82352941,-1335,-9485.888188,815.9078498,-441.8808212,-552.4515586,-1009.374834,-5560,-8752,398,-1329,650,2048,61.87,68.75274553,59.58,67.50645635,0,-0.047254466,0,0.041883578
302,-33,0.9,1,29.41176471,-1332,-8900,654,-449,-314,-1114,-5850.952739,-8602.518949,459.3883399,-1375.362479,690.1518987,2147.135372,61.87,68.7093483,59.58,67.56604763,0,-0.043397237,0,0.059591278
302,-33,0.9,1,30,-1395.365475,-8109.111812,526.2967903,-449,-78.70622765,-1178.470257,-6170,-8254,478,-1395,778,2227,61.87,68.64896651,59.58,67.68126568,0,-0.060381784,0,0.115218045
302,-33,0.9,1,30.58823529,-1578,-7586,320,-449,269,-1274,-6204,-7490,408,-1374,935,2255,61.87,68.64,59.59714635,67.7,0,-0.008966513,0.017146346,0.018734323
302,-33,0.9,1,31.17647059,-5569.634525,-15658,-1269.20464,72.5,1553.597177,-2461.899431,-6018.483715,-7381.76815,103.0505773,-1331.577229,1129.811749,2327.183661,61.87,68.64,59.63940159,67.7,0,0,0.042255241,0
302,-33,0.9,1,31.76470588,-9442,-23730,-2708,594,2738,-3575,-5752,-7346,-198,-1269,1295,2443,61.87,68.60328099,59.64,67.78194735,0,-0.036719013,0.000598412,0.081947347
302,-33,0.9,1,32.35294118,-1480,-6598,5202,592,2905,-3057,-5620,-9166,-262,-1177,1376,2623,61.87,68.54353749,59.64,67.87577416,0,-0.059743493,0,0.093826814
302,-33,0.9,1,32.94117647,-82,-4680,3394,220,3800,-3120,-5671,-10718.93782,106.110426,-1257.140097,1425.634165,2714.457143,61.87,68.4877123,59.64,67.91413987,0,-0.055825198,0,0.038365709
302,-33,0.9,1,33.52941176,1001.75284,-3846.348331,72.44343635,-781.9870594,3980.634248,-3376.308222,-5722,-11836,696,-1389,1458,2755,61.85279449,68.48,59.64,67.95724975,-0.017205507,-0.007712296,0,0.043109877
302,-33,0.9,1,34.11764706,1554,-2822,-2178,-1534,4044,-3586,-5522,-12479.80886,1196.01163,-1515.859903,1473.241071,2730.216772,61.80250732,68.48,59.64,68.00514911,-0.050287173,0,0,0.047899368
302,-33,0.9,1,34.70588235,-4199,6553.841512,4828,411.5,2491.314668,-1405.5,-5322,-12776,1522,-1591,1488,2686,61.78250813,68.46631424,59.64,68.06581577,-0.019999186,-0.01368576,0,0.060666653
302,-33,0.9,1,35.29411765,-9952,15088,11834,2357,734,775,-5638.265476,-11944.54621,1599.877944,-1546.133848,1528.25,2652.590395,61.76567587,68.42824704,59.64,68.09,-0.016832268,-0.0380672,0,0.024184232
302,-33,0.9,1,35.88235294,-5223,2570,11726.30914,336.5,452.0631423,-990.3867925,-6326,-10554,1630,-1452,1558,2597,61.75241341,68.38096384,59.64,68.09,-0.013262459,-0.0472832,0,0
302,-33,0.9,1,36.47058824,-494,-9948,11352,-1684,267,-3481,-7532,-9430,1150,-1304,1489,2323,61.74357903,68.33982464,59.64,68.10678383,-0.008834377,-0.0411392,0,0.016783832
302,-33,0.9,1,37.05882353,-2928,-6414,-6470,-1456,64,-4637,-8013.414776,-6984.515697,506.8992055,-1184.144271,1455.125755,1575.162426,61.74003101,68.32018944,59.64,68.16387005,-0.003548022,-0.0196352,0,0.057086223
302,-33,0.9,1,37.64705882,-3442,-7950,-7712,-901,215,-5136,-8212,-4422,-254,-1108,1426,664,61.74,68.32,59.64,68.25552476,-3.10E-05,-0.00018944,0,0.091654704
302,-33,0.9,2,38.23529412,-880.9034732,-7602.592593,-6471.361438,-156.6720643,258.0582499,-4899.930941,-6328.710804,-3139.527872,-1087.553996,-1088.660271,1394.617666,19.16621953,61.74,68.32,59.64,68.33938706,0,0,0,0.083862301
302,-33,0.9,2,38.82352941,4080.637498,-6957.407407,-3536.945099,619.2017343,284.8069027,-4355.417438,-3308,-1796,-2082,-1068,1344,-598,61.74,68.32,59.64,68.39332224,0,0,0,0.05393518
302,-33,0.9,2,39.41176471,7360,-6610,-90,995,294,-3748,-662.5882001,1695.318745,-3738.908775,-761.8711933,794.1940319,-1436.411367,61.74,68.32,59.65898438,68.4,0,0,0.018984375,0.00667776
302,-33,0.9,2,40,8078,-7630,4132,1014,2,-3096,1867.150344,6246.548261,-5647.009943,-224.3166687,-344.4353248,-2300.539017,61.74,68.32,59.7,68.4,0,0,0.041015625,0
302,-33,0.9,2,40.58823529,5488,-7804,7104,294,-98,-2274,2996,8508,-6560,81,-1528,-2698,61.69898438,68.32,59.7,68.44364535,-0.041015625,0,0,0.043645352
302,-33,0.9,2,41.17647059,5686,-7861.477679,4814.028832,-168.7058824,-125.6363636,-1656.354946,2760,6076,-6366,102,-2607,-1745,61.68,68.32,59.7,68.50149624,-0.018984375,0,0,0.057850892
302,-33,0.9,2,41.76470588,5884,-7884,1990,-390,-136,-1199,1053.940438,2474.988435,-3985.608695,295.9758414,-3114.379861,-2244.35234,61.68,68.32,59.7,68.55316118,0,0,0,0.05166494
302,-33,0.9,2,42.35294118,5016.518519,-7862.740741,1016.467261,-363.1287901,-126.3072757,-883.0534103,-462,-1090,-378,589,-3334,-3171,61.68,68.32,59.71898438,68.56,0,0,0.018984375,0.006838816
302,-33,0.9,2,42.94117647,3405.481481,-7823.259259,327.4558527,-298.7020245,-100.3923291,-633.9120824,-258,-3428,2262,815,-3060,-4187,61.68,68.32,59.76,68.56,0,0,0.041015625,0
302,-33,0.9,2,43.52941176,2538,-7802,66,-221,-63,-465,-1478,-4176,2160,935,-2691,-4635,61.63583147,68.37047832,59.76,68.59873099,-0.044168532,0.050478323,0,0.038730992
302,-33,0.9,2,44.11764706,2962,-7988,974,-119,21,-373,-2346.633461,-3913.62963,1476.966913,1134.543415,-2150.297721,-5232.11867,61.61,68.4,59.76,68.65698803,-0.025831468,0.029521677,0,0.058257033
302,-33,0.9,2,44.70588235,3726.705882,-7885,1181.419875,-134.4464286,-25.71133231,-139.3607519,-3048.983397,-3426.37037,315.3635339,1392.478675,-1509.29738,-5905.83182,61.61,68.4,59.76,68.71483378,0,0,0,0.05784575
302,-33,0.9,2,45.29411765,4242,-7782,1256,-159,-84,109,-3338,-3164,-478,1652,-930,-6501,61.59430318,68.4,59.76,68.72,-0.015696817,0,0,0.005166225
302,-33,0.9,2,45.88235294,3306,-7942,1074,-176,-100,231,-3174.202479,-3211.042857,-770.7433914,1898.077854,-445.0410054,-6981.989919,61.55,68.4,59.76,68.72,-0.044303183,0,0,0
302,-33,0.9,2,46.47058824,1254,-7804,684,-135,-60,226,-2976,-3312,-900,2139,-61,-7366,61.49938703,68.4,59.79785874,68.72,-0.050612973,0,0.037858742,0
302,-33,0.9,2,47.05882353,1313.62963,-7759.971402,862.6627749,-89.77461707,-63.00732818,161.4983479,-2930,-3482,-820,2361,171,-7619,61.48,68.40440732,59.82,68.71261719,-0.019387027,0.004407319,0.022141258,-0.007382812
302,-33,0.9,2,47.64705882,1424.37037,-7734.704008,1246.658883,-46.38730853,-69.57021192,22.32405084,-3012,-3667.563763,-565.9448276,2548.080719,314.3364823,-7876.752331,61.48,68.45972338,59.82,68.64738281,0,0.055316064,0,-0.065234375
302,-33,0.9,2,48.23529412,1484,-7686,1608,-27,-76,-135,-3094,-3902,-368,2701,382,-8072,61.48,68.54417424,59.83607747,68.66390433,0,0.084450859,0.016077473,0.01652152
302,-33,0.9,2,48.82352941,1364,-7480,1862,-147,-81,-311,-2635.422143,-4244.184233,-592.779661,2810.128358,192.2159357,-8178.371299,61.48,68.64,59.88,68.72,0,0.095825757,0.043922527,0.056095667
302,-33,0.9,2,49.41176471,902,-8038,2016,-215,-88,-451,-2076,-4774,-976,2904,-223,-8227,61.54293786,68.70111677,59.92375244,68.75368021,0.062937862,0.061116765,0.043752439,0.033680205
302,-33,0.9,2,50,1021.777778,-7978.68825,1810.148148,-259.7976278,-95.09692161,-617.1154416,-1940,-5888,-1304,2997,-965,-8110,61.63760554,68.72,59.96990487,68.78281943,0.094667679,0.018883235,0.046152427,0.02913922
302,-33,0.9,3,50.58823529,1244.222222,-7849.598721,1427.851852,-295.7626892,-102.8984503,-794.9323757,-2066,-6574,-1298,3035,-1510,-8001,61.73160488,68.72,59.99809182,68.79895817,0.093999343,0,0.028186952,0.01613874
302,-33,0.9,3,51.17647059,1364,-7724,1222,-328,-114,-955,-2603.132123,-7338.946407,-1071.275419,3027.59226,-2143.783964,-7783.569385,61.74,68.72,60,68.77870145,0.008395116,0,0.001908181,-0.020256711
302,-33,0.9,3,51.76470588,1226,-7628,1394,-357,-137,-1082,-3537.224906,-8076.028759,-582.4469966,3007.295632,-2764.947537,-7494.845379,61.74,68.72,60,68.72,0,0,0,-0.058701454
302,-33,0.9,3,52.35294118,1076,-7746,1404,-417,-139,-1300,-4434,-8406,-88,2977,-3045,-7253,61.70844952,68.610625,60,68.65849223,-0.031550481,-0.109375,0,-0.061507769
302,-33,0.9,3,52.94117647,1284.788462,-7698.601504,1301,-446.2018958,-144.2222777,-1478.102741,-5132,-8228,330,2900,-2964,-7104,61.65997596,68.56,59.990625,68.64,-0.048473558,-0.050625,-0.009375,-0.018492231
302,-33,0.9,3,53.52941176,1538,-7618,1198,-474,-154,-1637,-5827.564399,-8862.652707,755.959675,2745.988114,-2706.571619,-6884.078426,61.6121244,68.56,59.94257813,68.64,-0.047851562,0,-0.048046875,0
302,-33,0.9,3,54.11764706,1615.211538,-7532.398496,1346,-522.7303971,-179.6911223,-1779.395363,-6214,-9766,1140,2564,-2300,-6636,61.61,68.59336077,59.96502058,68.64,-0.002124399,0.033360768,0.022442451,0
302,-33,0.9,3,54.70588235,1648,-7480,1494,-583,-216,-1922,-6143.924012,-10298.06814,1498.070485,2409.944473,-1768.374287,-6408.001438,61.61,68.64,60,68.64,0,0.046639232,0.034979424,0
302,-33,0.9,3,55.29411765,1617,-7484,1469.940229,-666.1265306,-257.2601764,-2091.864394,-6002,-10592,1692,2268,-1155,-6168,61.5781798,68.59667962,60,68.59667962,-0.031820199,-0.043320384,0,-0.043320384
302,-33,0.9,3,55.88235294,1586,-7488,1410,-719,-288,-2261,-5839.776522,-10640.27915,1677.633783,2142.819005,-575.0547224,-5893.043954,61.533844,68.54094314,60,68.54207554,-0.0443358,-0.055736476,0,-0.054604072
302,-33,0.9,3,56.47058824,1750.813108,-7471.965737,1084.624777,-717.893607,-298.8989899,-2423.193549,-5556,-10658,1634,2026,36,-5593,61.49204239,68.49434799,60,68.49754921,-0.041801615,-0.046595152,0,-0.044526337
302,-33,0.9,3,57.05882353,2123.181771,-7433.709251,555.5346109,-714.5649917,-306.2828283,-2575.359882,-4618,-10364,1318,1913,729,-5266,61.44690603,68.43671901,60.0244043,68.41685525,-0.04513636,-0.057628974,0.024404297,-0.08069396
302,-33,0.9,3,57.64705882,2520,-7388,278,-709,-309,-2676,-3725.562948,-10079.55534,1117.358925,1821.299885,1240.131656,-5011.246654,61.42,68.40249678,60.06,68.31069848,-0.026906026,-0.034222236,0.035595703,-0.106156763
302,-33,0.9,3,58.23529412,2942.403329,-7337.4214,290.5859873,-654.1916618,-300.5,-2729.147078,-2854.467853,-9792.769321,951.9959499,1735.587639,1702.477778,-4791.112009,61.42,68.59702829,60.06,68.22289244,0,0.194531515,0,-0.087806047
302,-33,0.9,3,58.82352941,3296,-7262,330,-597,-292,-2758,-2024.138832,-9564.598642,819.635,1669.331573,2046.33501,-4573.17136,61.42,68.77175928,60.0515978,68.13304971,0,0.174730986,-0.008402198,-0.08984272
302,-33,0.9,3,59.41176471,3450,-7106,690,-590,-308,-2766,-1254,-9456,718,1636,2202,-4325,61.42,68.8722817,60.00494606,68.03832981,0,0.100522424,-0.04665174,-0.094719905
302,-33,0.9,3,60,3642,-7194,956,-605,-295,-2758,-578,-9438,650,1628,2226,-4017,61.42,68.88,60,67.94436606,0,0.007718298,-0.004946061,-0.093963749
302,-33,0.9,3,60.58823529,3814,-6906,1008,-685,-392,-2752,-180,-9092,218,1626,2097,-3438,61.42,68.87840423,59.99960297,67.85071477,0,-0.001595766,-0.00039703,-0.093651293
302,-33,0.9,3,61.17647059,3778,-6685.727548,1192.710983,-762.4193548,-449.3285953,-2760,-571.2767231,-8763.493971,-65.47732181,1563.086497,1843.123097,-2875.521166,61.42,68.76572359,59.96628409,67.76148976,0,-0.112680643,-0.033318879,-0.089225011
302,-33,0.9,3,61.76470588,3742,-6574,1340,-805,-476,-2768,-1004,-8584,-202,1440,1588,-2345,61.429375,68.72,59.92516878,67.64324163,0.009375,-0.04572359,-0.041115307,-0.118248126
302,-33,0.9,3,62.35294118,4062.962963,-6602,959.4074074,-781.1481481,-470.2962963,-2757.595442,-1066.077652,-8894.592593,145.4074074,1279.471,1419.614645,-1870.682557,61.47742188,68.72,59.88735231,67.48724681,0.048046875,0,-0.037816471,-0.155994817
302,-33,0.9,3,62.94117647,4659.037037,-6654,252.5925926,-736.8518519,-459.7037037,-2737.413105,-1101.782121,-9471.407407,790.5925926,1068.420957,1282.5851,-1425.815304,61.48,68.72,59.844488,67.43506821,0.002578125,0,-0.042864312,-0.052178599
302,-33,0.9,3,63.52941176,4980,-6682,-128,-713,-454,-2724,-1134,-9782,1138,841,1226,-977,61.48,68.72,59.82,67.39384954,0,0,-0.024488002,-0.04121868
302,-33,0.9,3,64.11764706,4962.37037,-6554.225217,-117.0925307,-729.2764228,-454.7187314,-2721.161518,-1177.37931,-9760.793363,1119.175571,588.1199373,1303.518519,-497.627485,61.48,68.72,59.82,67.30147027,0,0,0,-0.092379266
302,-33,0.9,3,64.70588235,4929.62963,-6311.339324,-90.18506132,-767.5528455,-456.9930184,-2719.553806,-1218.022989,-9699.142281,1063.462253,314.277454,1447.481481,-14.20302193,61.48894987,68.7281979,59.82,67.20356961,0.008949867,0.008197897,0,-0.097900663
302,-33,0.9,3,65.29411765,4912,-6164,-56,-812,-461,-2716,-1236,-9600,972,74,1525,427,61.5429341,68.78777904,59.82,67.11101323,0.053984237,0.059581142,0,-0.092556374
302,-33,0.9,3,65.88235294,4983.5,-6139.663297,-8.346111241,-878.5640244,-656.7330938,-2582.103548,-1134,-9254,618,-106,1484,796,61.57080026,68.85218673,59.82,66.97911021,0.027866152,0.064407694,0,-0.131903026
302,-33,0.9,3,66.47058824,5120,-6130,60,-924,-850,-2451,-1022,-9082,246,-301,1381,1295,61.59320803,68.92771788,59.82,66.86342035,0.022407775,0.075531144,0,-0.115689858
302,-33,0.9,3,67.05882353,5319.333333,-6418.854564,186.7262961,-904.8709946,-843.0547264,-2470.703704,-844.7674024,-9086,349,-434.7233014,1236.025056,1638.286717,61.60736482,69.00187599,59.82,66.81847258,0.014156787,0.074158114,0,-0.044947768
302,-33,0.9,3,67.64705882,5553.333333,-6968.598016,342.1409258,-857.0753225,-828.1094527,-2507.296296,-730,-9090,452,-510,1074,1888,61.61,69.06176883,59.81671418,66.76310757,0.002635181,0.059892841,-0.003285823,-0.055365009
302,-33,0.9,3,68.23529412,5666,-7304,418,-795,-814,-2527,-792.5030488,-8795.23427,331,-525.1577542,905.5363008,2058.140369,61.61,69.11039076,59.78618092,66.67641912,0,0.048621932,-0.030533254,-0.086688448
302,-33,0.9,3,68.82352941,5424,-7348,-32,-695,-804,-2488,-896,-8314,210,-537,762,2180,61.61,69.16734933,59.73951627,66.57641853,0,0.056958566,-0.04666465,-0.100000596
302,-33,0.9,3,69.41176471,4910,-7008,80,-675,-857,-2509,-997.4969512,-7861.76573,211.511811,-559.1836364,669.8158433,2273.95479,61.61078613,69.2,59.6960752,66.4809805,0.000786133,0.032650669,-0.043441077,-0.095438025
302,-33,0.9,3,70,4832.78254,-7484,449.8269834,-643.1321321,-847.6666667,-2593.748105,-1058,-7596,216,-585,604,2330,61.66376465,69.2,59.6499426,66.38795187,0.052978516,0,-0.046132595,-0.093028638
302,-33,0.9,3,70.58823529,4789.502381,-8368,970.1357139,-607.7327327,-830.3333333,-2735.008164,-986,-7608,244,-610,563,2345,61.68,69.23710938,59.64,66.3211175,0.016235352,0.037109375,-0.0099426,-0.066834362
302,-33,0.9,3,71.17647059,4776,-8844,1234,-591,-821,-2859,-857.1415701,-7654.959725,216.7537923,-623.1228814,522.6317353,2323,61.68,69.35820313,59.64,66.27438023,0,0.12109375,0,-0.046737273
302,-33,0.9,3,71.76470588,5121.106502,-8059.332839,964.8827209,-619.5,-911.7234869,-2957.691083,-604,-7764,144,-629,457,2301,61.645,69.36,59.64,66.23200847,-0.035,0.001796875,0,-0.042371762
302,-33,0.9,3,72.35294118,5656,-7054,480,-648,-1052,-3011,4082.061459,-10492.91584,-1028.895631,-211.3333333,-390.6737228,2658.259259,61.61,69.35911882,59.64,66.19700512,-0.035,-0.000881181,0,-0.035003345
302,-33,0.9,3,72.94117647,5998,-6740,-8,-648,-1141,-2980,12420.03073,-15410.68014,-3111.781149,564.3333333,-2085.604543,3321.740741,61.61,69.27280788,59.64,66.17220578,0,-0.086310939,0,-0.024799348
302,-33,0.9,3,73.52941176,5494,-6420,-354,-705,-1182,-2910,16874,-18044,-4224,982,-3644,3679,61.61,69.11303505,59.64,66.15123635,0,-0.159772831,0,-0.020969425
302,-33,0.9,3,74.11764706,5013.164087,-6413.784615,-852.5808436,-783.7388391,-1130.027947,-2978.718944,7028,-17462.04396,2081,802.7745069,-4962.049239,3422.210271,61.61,68.97615121,59.64,66.12619306,0,-0.136883838,0,-0.025043294
302,-33,0.9,3,74.70588235,4750,-6412,-1166,-848,-1034,-3077,-2818,-16268,8386,409,-5699,3004,61.61,68.90649052,59.64,66.07854631,0,-0.069660688,0,-0.047646743
302,-33,0.9,3,75.29411765,5147.198738,-6658.214828,-992.8070246,-872.1141729,-928.8427686,-3128.006702,2086,-14512,7488,-304,-4933,2692,61.61,68.88481987,59.64,66.05267861,0,-0.021670657,0,-0.025867706
302,-33,0.9,3,75.88235294,5899.508586,-7198.207434,-603.1696048,-887.7676127,-807.3156191,-3169.15281,1562,-1268,736,-1438,-2494,3091,61.61,68.99098718,59.64,66.10539589,0,0.106167311,0,0.052717281
302,-33,0.9,3,76.47058824,6348,-7734,-192,-911,-696,-3210,1628.773558,-2498.962963,458.2248875,-1389.82284,-873.0933652,3049.018511,61.61,69.07232241,59.64,66.12,0,0.081335233,0,0.014604112
302,-33,0.9,3,77.05882353,6387.188242,-8200.491356,217.4462308,-978.8811315,-584.6626573,-3264.471239,1831.547115,-4785.037037,316.0013326,-1255.201236,409.0760571,2933.70369,61.61,69.1182414,59.64,66.12,0,0.04591899,0,0
302,-33,0.9,3,77.64705882,6436,-8592,590,-1034,-522,-3297,2174,-6016,276,-1049,1052,2761,61.620347,69.10817486,59.64,66.12,0.010346996,-0.010066539,0,0
302,-33,0.9,3,78.23529412,8316,-8816,822,-1038,-814,-3144,6358.379748,-5761,1106,-129.2409713,1238.282945,2089.979175,61.64975958,69.07456048,59.64,66.12,0.029412583,-0.033614381,0,0
302,-33,0.9,3,78.82352941,8526,-9654,1040,-1035,-977,-2967,10336,-5506,1936,672,1313,1517,61.67566603,69.04495311,59.64,66.12,0.025906447,-0.029607368,0,0
302,-33,0.9,3,79.41176471,7276,-10874,1328,-1011,-1272,-2722,6662.142932,-6238.217913,604.4814928,-221,435,2606,61.68,69.04,59.64,66.13669041,0.004333973,-0.004953112,0,0.016690413
302,-33,0.9,3,80,7154.403542,-11056.16514,1349.427822,-990.3323861,-1250.297032,-2629.809205,940,-7368,-1110,-1114,-443,3695,61.68,69.04,59.64,66.19693873,0,0,0,0.060248321
302,-33,0.9,3,80.58823529,7099.202747,-11158.19368,1360.713911,-969.40256,-1193.927398,-2572.315012,-2776,-8080,-1658,-635,16,3380,61.71,69,59.64,66.2,0.03,-0.04,0,0.003061266
302,-33,0.9,3,81.17647059,7026,-11190,1364,-937,-1116,-2475,-3536.90476,-7720,-1007.107143,-337.6116739,94.33720515,2943.881673,61.74,68.96205435,59.64,66.2,0.03,-0.037945648,0,0
302,-33,0.9,3,81.76470588,6902.130131,-9781.39004,788.8986265,-823.1320245,-928.7791317,-2166.117676,-4006,-7360,142,-197,121,2526,61.74,69.01122662,59.64,66.2,0,0.049172266,0,0
302,-33,0.9,3,82.35294118,6718,-7574,-150,-722,-746,-1697,-4477.702513,-7492.217877,1507.107143,-248.0672043,64,2273.74128,61.74,69.07001653,59.64,66.2,0,0.058789911,0,0
302,-33,0.9,3,82.94117647,6307.59591,-5954.729908,-945.7285038,-711.8938799,-692.9666014,-1159.697511,-5044,-7654,2374,-318,7,2014,61.74,69.11938574,59.64,66.2,0,0.049369211,0,0
302,-33,0.9,3,83.52941176,5692.874123,-4460.499923,-1720.838448,-707.1681148,-660.2353176,-537.4185342,-6218,-7694,1226,-347,92,1569,61.77264401,69.12,59.64,66.2,0.032644006,0.00061426,0,0
302,-33,0.9,3,84.11764706,5106,-3344,-2240,-697,-611,73,-4794,-7726,178,-311,195,974,61.8,69.13061423,59.63770405,66.2,0.027355994,0.010614228,-0.00229595,0
302,-33,0.9,3,84.70588235,4703.796108,-2774.859053,-2529.18602,-618.5604131,-514.7216279,610.6858153,-3125.562196,-8042.27815,824,-248.8576452,85.5,816.7404006,61.8,69.35366831,59.59251781,66.2,0,0.223054084,-0.045186241,0
302,-33,0.9,4,85.29411765,4178,-2096,-2662,-466,-342,1188,-2146,-8332,1470,-193,-24,700,61.8,69.47190879,59.58,66.2,0,0.118240482,-0.01251781,0
302,-33,0.9,4,85.88235294,2748,334,-1802,-216,126,1941,-3000,-8020,981,-172.2505682,7.448369565,509.131006,61.8,69.51529916,59.58,66.2,0,0.043390366,0,0
302,-33,0.9,4,86.47058824,4040,3618.07581,-2528,-402.5,1399.728048,2416.749685,-3854,-7708,492,-151,47,325,61.83808467,69.57319172,59.54735599,66.2,0.038084673,0.057892556,-0.032644006,0
302,-33,0.9,4,87.05882353,5332,5640,-3254,-589,2407,2643,-3040.551216,-7861,651.3245033,-82.97465992,61.55163043,170.7888707,61.87,69.6,59.52,66.20300781,0.031915327,0.026808284,-0.027355994,0.003007813
302,-33,0.9,4,87.64705882,3123,2989.25071,-2892.492807,-441.0573205,2485.323209,2551.5,-2054,-8014,860,-17,68,89,61.87,69.6,59.52,66.2590625,0,0,0,0.056054687
302,-33,0.9,4,88.23529412,914,-618,-2110,-192,2513,2460,-1822,-7936,932,2,12,118,61.87,69.6164136,59.52,66.27,0,0.016413597,0,0.0109375
302,-33,0.9,4,88.82352941,1271.777778,-2498.519781,-314.0127884,58.62042159,2157.851664,2989.181079,-2161,-7854.227848,1057.007581,21.81677524,6.673913043,122.4942748,61.87,69.67503358,59.52,66.27,0,0.058619988,0,0
302,-33,0.9,4,89.41176471,1936.222222,-3986.815446,2139.326939,312.1990997,1420.036661,4049.251047,-2500,-7808,1192,33,5,124,61.87,69.73290454,59.55264401,66.27,0,0.057870955,0.032644006,0
302,-33,0.9,4,90,2294,-4592,3374,428,791,4849,-2432.940803,-7833,1314.444444,15.08881579,25.95294118,87,61.87,69.7565625,59.58,66.27207974,0,0.023657961,0.027355994,0.002079741
302,-33,0.9,4,90.58823529,2224.675153,-3833.883284,2504.388294,330.5,359.2918782,5150.627591,-2282,-7858,1382,-12,57,50,61.87,69.6925,59.58,66.32353448,0,-0.0640625,0,0.051454741
302,-33,0.9,4,91.17647059,2142,-2970,1054,233,133,5417,-1946.342502,-7846.482143,1333,-27.10031004,78.54705882,77.72030387,61.88714635,69.68,59.58,66.40560055,0.017146346,-0.0125,0,0.08206607
302,-33,0.9,4,91.76470588,2125.256614,-2786.800088,-367.0606705,341.0243766,137.0702045,5820.426521,-1554,-7828,1284,-43,90,139,61.92940159,69.68,59.58,66.48894734,0.042255241,0,0,0.083346786
302,-33,0.9,4,92.35294118,2116.091412,-2668.177822,-1789.308113,590.3820866,149.3626313,6282.069856,-1274.214883,-7811.517857,1296.287234,-67.07941484,84.5,254.5743683,61.93,69.63647466,59.61264401,66.45191533,0.000598412,-0.043525341,0.032644006,-0.037032012
302,-33,0.9,4,92.94117647,2096,-2626,-2436,869,170,6685,-1096,-7802,1328,-99,79,412,61.93042142,69.60084592,59.64,66.42,0.000421417,-0.035628734,0.027355994,-0.031915327
302,-33,0.9,4,93.52941176,1598.069338,-2788.679581,-2051.081803,1208.232665,329.2744299,7002.072578,-1044.939768,-7803.555556,1453.362055,-141.7879972,83.6875,576.4586961,61.94326302,69.62404207,59.64,66.42,0.012841601,0.023196149,0,0
302,-33,0.9,4,94.11764706,1116,-3180,-1232,1494,614,7251,-1002,-7808,1660,-197,94,749,61.96816545,69.65925926,59.64,66.39999593,0.024902428,0.035217186,0,-0.020004071
302,-33,0.9,4,94.70588235,1322,-4134,112,1599,956,7411,-896.5620438,-7887.444444,1966.350711,-266.38372,119.3125,909.3508296,61.99717866,69.67978407,59.64,66.35069815,0.029013216,0.020524807,0,-0.049297781
302,-33,0.9,4,95.29411765,1706,-4710,454,1547,1245,7475,-822,-7964,2172,-355,139,1080,62.03172859,69.64328099,59.6044043,66.35,0.034549927,-0.03650308,-0.035595703,-0.000698148
302,-33,0.9,4,95.88235294,2328.545578,-4953.288345,145.7145095,1467.582688,1679.184136,7520.492958,-1416,-7638,1926,-479,77,1290,62.07209578,69.58353749,59.58,66.35,0.040367196,-0.059743493,-0.024404297,0
302,-33,0.9,4,96.47058824,3068,-5140,-204,1375,2126,7543,-2078,-7742,1666,-548,92,1364,62.11413049,69.5277123,59.58,66.35,0.042034702,-0.055825198,0,0
302,-33,0.9,4,97.05882353,3842.481757,-5332.284671,-275.5665353,1276.345435,2527.885903,7461.525865,-1920.663224,-7716.502924,1398.615215,-600.0687022,156.6214475,1419.705931,62.15133535,69.52,59.58,66.37000407,0.037204859,-0.007712296,0,0.020004071
302,-33,0.9,4,97.64705882,4641.31092,-5525.883327,-321.6721566,1174.856688,2890.387396,7271.385063,-1592.659781,-7664.339181,1138.020008,-643.1401322,253.2551682,1470.768616,62.18614742,69.52,59.58,66.41930185,0.034812078,0,0,0.049297781
302,-33,0.9,4,98.23529412,5308,-5796,-338,1094,3048,7054,-1310,-7622,940,-662,303,1547,62.23826598,69.52,59.58,66.42,0.052118556,0,0,0.000698148
302,-33,0.9,4,98.82352941,5881.819305,-6472.072681,47,1035.551683,2953.500242,6815.767437,-1152,-7602,824,-663,234,1724,62.26,69.52,59.58494606,66.42,0.021734021,0,0.004946061,0
302,-33,0.9,4,99.41176471,6431.228271,-7528.416793,894,985.5230646,2711.500646,6528.746223,-1435.111111,-7533.822931,932.2426721,-685.742506,246.5079365,1915.903879,62.26,69.52,59.6315978,66.42,0,0,0.04665174,0
302,-33,0.9,4,100,6843.523102,-8507.552507,1741,943.7329139,2384.250727,6222.851897,-1960.888889,-7437.133688,1163.152011,-736.6937446,277.6825397,2111.785273,62.26,69.52,59.64,66.40587123,0,0,0.008402198,-0.014128769
302,-33,0.9,1,0,7006,-8952,2126,910,2034,5928,-2244,-7388,1376,-795,318,2285,62.26,69.52,59.64,66.35,0,0,0,-0.055871231
302,-33,0.9,1,0.666666667,6824.836318,-8973.655685,2106.437327,883.2753818,1586.548974,5648.624474,-1636,-7620,1554.226994,-863.2424377,395.5418884,2428.630977,62.27251781,69.53669041,59.61374524,66.2512865,0.01251781,0.016690413,-0.026254764,-0.098713499
302,-33,0.9,1,1.333333333,6393.896848,-8989.305053,2048.332871,861.165724,1008.215223,5369.940768,-1028,-7852,1654,-936,464,2549,62.29785874,69.57047832,59.57256933,66.2,0.025340932,0.03378791,-0.041175907,-0.051286501
302,-33,0.9,1,2,5882.008954,-8998.801895,1952.56198,841.4732042,422.0238603,5093.036678,-1631.4375,-7681.6875,1569.887711,-1000.745819,480.7474695,2662.486551,62.31770405,69.59693873,59.53246541,66.2,0.019845308,0.026460411,-0.040103918,0
302,-33,0.9,1,2.666666667,5458,-9002,1820,822,-49,4819,-2959,-7307,1362.867229,-1063.759409,489.3631865,2773.738045,62.32,69.5746875,59.5045233,66.1930278,0.00229595,-0.022251234,-0.027942113,-0.006972201
302,-33,0.9,1,3.333333333,5166,-8652,1394,803,-362,4550,-4286.5625,-6932.3125,1100.913133,-1120.393295,498.0473102,2858.370517,62.32,69.52,59.48052996,66.16181763,0,-0.0546875,-0.023993338,-0.031210173
302,-33,0.9,1,4,4486,-8670,692,839,-780,4172,-4890,-6762,852,-1166,515,2892,62.32,69.52,59.46396907,66.12927178,0,0,-0.016560893,-0.032545844
302,-33,0.9,1,4.666666667,4065.697484,-8801.257225,531.6532956,887.9307998,-1092.107241,3900.725319,-4831.805413,-6854.081986,559.0663853,-1199.023225,585.9668227,2733.650826,62.32,69.52,59.46,66.12467983,0,0,-0.003969067,-0.004591952
302,-33,0.9,1,5.333333333,3710,-8918,474,919,-1344,3658,-4664,-6990,376,-1227,671,2538,62.32,69.52,59.46,66.17852337,0,0,0,0.053843544
302,-33,0.9,1,6,3281.371688,-8708.762295,610,920.4878049,-1554.44892,3392.367212,-3780,-7064,510,-1254,712,2487,62.32,69.50378384,59.46,66.22484341,0,-0.016216162,0,0.046320036
302,-33,0.9,1,6.666666667,2964,-8382,746,921,-1715,3150,-3658.119767,-6849,451.1320755,-1257.760373,647.5,2597.5,62.32,69.44509405,59.46,66.26554066,0,-0.058689788,0,0.040697246
302,-33,0.9,1,7.333333333,2856,-8168,602,915,-1813,2967,-3618,-6634,318,-1259,583,2708,62.2844043,69.38418423,59.46,66.32524829,-0.035595703,-0.060909817,0,0.059707632
302,-33,0.9,1,8,2745.233967,-8148.203583,427.5664831,936.2075929,-1909.495727,2755.193166,-4591,-6814.247451,-47.13207547,-1240,625.1068249,2625.55778,62.26,69.36,59.46,66.35,-0.024404297,-0.024184232,0,0.024751712
302,-33,0.9,1,8.666666667,2614,-8142,324,974,-1994,2517,-5564,-7158,-338,-1221,712,2470,62.26,69.36,59.46,66.35,0,0,0,0
302,-33,0.9,1,9.333333333,2379.93718,-8310.518519,450.5185185,1018.816131,-2057.945107,2230.043499,-3942,-7566,838,-1224,842,2291,62.25786739,69.35900702,59.46,66.36587575,-0.002132609,-0.000992976,0,0.015875753
302,-33,0.9,1,10,2098.553131,-8623.481481,685.4814815,1067.296954,-2112.421941,1915.972597,-3388,-7270,888,-1248,828,2359,62.2487672,69.35426116,59.46,66.4152743,-0.009100189,-0.004745861,0,0.049398543
302,-33,0.9,1,10.66666667,1938,-8792,812,1090,-2163,1638,-3979.62963,-8832.814815,715.3333333,-1233.098039,914.5925926,2289.518519,62.23505873,69.34582072,59.46,66.46385882,-0.013708468,-0.008440447,0,0.048584524
302,-33,0.9,1,11.33333333,1910,-8780,702,1063,-2210,1427,-5078.37037,-11735.18519,394.6666667,-1202.196078,1075.407407,2160.481481,62.21953488,69.33393003,59.46,66.51844504,-0.015523851,-0.011890687,0,0.054586224
302,-33,0.9,1,12,1416,-8736,468,887,-2269,1146,-5670,-13298,222,-1176,1162,2091,62.20498855,69.31883345,59.46,66.5792747,-0.014546337,-0.01509658,0,0.06082966
302,-33,0.9,1,12.66666667,1130,-8904,494,751,-2289,973,-1290,-12656,3226,-1162,1063,2155,62.19421262,69.30077532,59.46,66.64643172,-0.010775927,-0.018058125,0,0.067157013
302,-33,0.9,1,13.33333333,671.0538072,-9250.546019,448.3048758,585.8340971,-2254.259259,870.3228993,-3178,-10660.96628,1314,-1169,921.6186921,2565.923403,62.19,69.28,59.46,66.72,-0.004212619,-0.020775324,0,0.073568283
302,-33,0.9,1,14,159.8602369,-9673.717454,335.943085,420.9269225,-2189.740741,791.0497599,-5066,-8832,-598,-1176,833,2926,62.19,69.22221137,59.46,66.8126353,0,-0.057788629,0,0.092635301
302,-33,0.9,1,14.66666667,-82,-9880,194,345,-2155,705,-4147,-8476.185922,291,-1042.5,998.1341948,2865.183673,62.18242798,69.2,59.46757202,66.91030546,-0.007572016,-0.022211371,0.007572016,0.097670157
302,-33,0.9,1,15.33333333,-66,-9127.121537,-61.35843986,343.5342612,-2158.271552,603.8232788,-3228,-8150,1180,-909,1208,2777,62.13757202,69.2,59.51242798,67.00717722,-0.044855967,0,0.044855967,0.096871763
302,-33,0.9,1,16,-26,-8172,-278,343,-2166,484,-4266.592593,-6913.176105,595.1111111,-910.7267267,1279.975215,2736.35942,62.13,69.2253125,59.52,67.02,-0.007572016,0.0253125,0.007572016,0.012822779
302,-33,0.9,1,16.66666667,154,-7805.878463,-333.7345455,380.5,-2191.728448,307.5217296,-6195.407407,-5160.476941,-491.1111111,-915.7867868,1329.641616,2704.208636,62.13,69.28,59.52,67.02,0,0.0546875,0,0
302,-33,0.9,1,17.33333333,310,-7642,-356,418,-2213,125,-7234,-4270,-1076,-924,1376,2651,62.08214844,69.23667962,59.52,67.10122572,-0.047851563,-0.043320384,0,0.08122572
302,-33,0.9,1,18,214,-7926,-32,381,-2193,-6,-5980,-4940,-744,-954,1424,2492,62.06,69.1774525,59.52,67.20785882,-0.022148437,-0.059227112,0,0.106633096
