locomotion_mode,terrain_info,walk_speed_info,gait_phase,gait_percentage,left_accel_x,left_accel_y,left_accel_z,left_gyro_x,left_gyro_y,left_gyro_z,right_accel_x,right_accel_y,right_accel_z,right_gyro_x,right_gyro_y,right_gyro_z,left_hip_angle,left_knee_angle,right_hip_angle,right_knee_angle,left_hip_angle_vel,left_knee_angle_vel,right_hip_angle_vel,right_knee_angle_vel
201,10,0.9,2,18.18181818,886,-7968,530,-38,-100,701,-2248,-1104,-768,-247,-902,1725,60.18,65.26,59.52,67.29121217,0,-0.022148437,0.018984375,0.109317976
201,10,0.9,2,18.93939394,930,-8059.151919,636.6925373,-17,-88,679.2363636,-1542,-1210.78233,-53.86973923,-26.52195046,-842.1750449,990.1414484,60.18,65.26,59.52,67.43648017,0,0,0,0.145268003
201,10,0.9,2,19.6969697,974,-8116,826,4,-76,638,-836,-1480,746,166,-722,156,60.1555957,65.34541504,59.52,67.53804562,-0.024404297,0.085415039,0,0.101565447
201,10,0.9,2,20.45454545,803.5198135,-7985,1044.867559,-17.51176471,-77.5,593.7636364,-896,-2258,1052,360,-556,-362,60.12,65.46772265,59.52,67.62829118,-0.035595703,0.122307614,0,0.090245567
201,10,0.9,2,21.21212121,526,-7854,1200,-49,-79,536,-1710,-3212,708,572,-386,-1182,60.12,65.29077871,59.52,67.68845668,0,-0.176943941,0,0.060165502
201,10,0.9,2,21.96969697,267.4801865,-8005,1230.439904,-64.32156863,-75.5,456.9402246,-2132,-3292,264,683,-314,-1755,60.12,65.13705649,59.52,67.694558,0,-0.153722224,0,0.006101319
201,10,0.9,2,22.72727273,116,-8156,1242,-81,-72,349,-1894,-3270,-128,944,-398,-2411,60.12,65.05417367,59.52,67.6480974,0,-0.082882816,0,-0.046460607
201,10,0.9,2,23.48484848,534,-8148,894,-115,-114,182,-1712,-3226,-508,1055,-458,-2869,60.12,65.01915763,59.53471436,67.54770952,0,-0.035016042,0.014714355,-0.100387876
201,10,0.9,2,24.24242424,472,-8178,550.3366337,-115.5325835,-126.1781016,32.15342346,-1834,-3492,-564,1246,-554,-3491,60.12,65.00016966,59.58561768,67.3558343,0,-0.018987974,0.05090332,-0.191875224
201,10,0.9,2,25,410,-8208,360,-116,-136,-95,-1880,-3550,-552,1415,-734,-3708,60.12,64.98240509,59.63212646,67.19618813,0,-0.017764562,0.046508789,-0.159646167
201,10,0.9,2,25.75757576,563,-8047,703.8743017,-129.7628205,-153.3439891,-184.8221176,-1872.208738,-3851.749201,-600,1570.758947,-835.7725852,-3989.07868,60.09736626,64.95474083,59.64,67.21338134,-0.022633745,-0.027664263,0.007873535,0.017193215
201,10,0.9,2,26.51515152,716,-7886,1162,-154,-174,-271,-1850,-4360,-648,1726,-898,-4328,60.00888889,64.9152904,59.64,67.38296296,-0.088477366,-0.039450429,0,0.169581619
201,10,0.9,2,27.27272727,148,-8484,1332,-179,-196,-384,-1740,-4994,-564,1893,-925,-4756,60.0244043,64.85066675,59.64,67.33492188,0.015515408,-0.064623657,0,-0.048041088
201,10,0.9,2,28.03030303,60,-8398,1246,-206,-112,-505,-1652.785714,-5585.734797,-422.9552352,2025.64053,-936.7208026,-5059.330984,60.05959959,64.74775702,59.64119682,67.24,0.035195292,-0.102909727,0.001196825,-0.094921875
201,10,0.9,2,28.78787879,396,-7830,1032,-213,-139,-597,-1608,-6044,-316,2144,-946,-5316,60.02613065,64.57353459,59.72570731,67.24,-0.03346894,-0.174222431,0.084510482,0
201,10,0.9,2,29.54545455,479.4530387,-7001.146497,650.3323133,-347.5213348,-293.5652174,-653.3006504,-1729.495113,-6305.318355,-290.2757697,2258.190772,-956.3006117,-5568.716721,59.98561424,64.43814089,59.76,67.19822225,-0.040516409,-0.135393703,0.034292693,-0.041777746
201,10,0.9,2,30.3030303,510,-6478,394,-476,-427,-712,-1982.101338,-6500.747389,-273.8045515,2366.79986,-967.0363438,-5804.817636,59.94916415,64.36033999,59.76,66.96329752,-0.036450091,-0.077800896,0,-0.234924735
201,10,0.9,2,31.06060606,499,-6848.57415,515.3953488,-407.5,-340.5,-824.9403739,-2198,-6688,-268,2470,-981,-6001,59.91254886,64.28969431,59.7803216,66.90542958,-0.036615292,-0.070645681,0.020321596,-0.057867937
201,10,0.9,2,31.81818182,488,-7392,754,-339,-254,-949,-2322.187251,-6881.436861,-275.072,2568.172682,-1008.413474,-6163.470346,59.87623357,64.18625034,59.8234581,66.8621133,-0.036315287,-0.103443965,0.043136502,-0.043316277
201,10,0.9,2,32.57575758,507.6788991,-7756.42585,1148.604651,-364.3256187,-261.175072,-1033.255075,-2421.915364,-7063.348143,-291.936,2662.334152,-1049.910158,-6311.984429,59.83224582,63.97056243,59.85558766,66.69707633,-0.043987751,-0.215687912,0.032129565,-0.165036977
201,10,0.9,2,33.33333333,566,-7948,1426,-418,-277,-1121,-2512.749852,-7243.340994,-312.064,2753.609282,-1093.900105,-6443.563339,59.82,63.81084154,59.90958942,66.64,-0.012245818,-0.159720895,0.054001753,-0.057076328
201,10,0.9,2,34.09090909,926,-7920,1370,-505,-306,-1253,-2610.256226,-7431.022563,-328.928,2843.122941,-1128.793368,-6555.228166,59.82,63.72336307,59.99589758,66.64,0,-0.087478469,0.086308166,0
201,10,0.9,2,34.84848485,1293.875358,-8012,991.6167665,-584.2859877,-318.0612916,-1315.943246,-2730,-7636,-336,2932,-1143,-6644,59.82,63.97076328,60,66.64,0,0.247400215,0.004102418,0
201,10,0.9,2,35.60606061,1664,-8104,658,-627,-329,-1360,-2893.574102,-7882.702787,-190.6885856,3021.947765,-1110.207267,-6711.786273,59.82,64.26842773,60.00067383,66.64091375,0,0.297664453,0.000673828,0.000913747
201,10,0.9,2,36.36363636,2032,-7536,676,-611,-349,-1396,-3074,-8122,10,3105,-1050,-6761,59.82,64.1624707,60.04608398,66.7241201,0,-0.105957031,0.045410156,0.083206352
201,10,0.9,2,37.12121212,1874.425646,-7959,646.8846154,-638.1157244,-384.3458829,-1388.5,-3242,-8300,96,3173,-986,-6792,59.79496438,64.13,60.06,66.90205411,-0.02503562,-0.032470703,0.013916016,0.177934011
201,10,0.9,2,37.87878788,1702,-8382,612,-681,-411,-1381,-3299.804966,-8504.117311,113.7475248,3223.14646,-904.3354756,-6768.425858,59.7045919,64.13,60.06,67.15819021,-0.090372481,0,0,0.256136097
201,10,0.9,2,38.63636364,1682.284691,-8363.454508,605.1161456,-710.1911417,-414.7366268,-1401.293779,-3344,-8714,120,3266,-855,-6713,59.7,64.28957663,60.08735599,66.99674537,-0.004591899,0.159576633,0.027355994,-0.161444838
201,10,0.9,2,39.39393939,1672.148881,-8314.24235,601.4801544,-737.2464373,-416.4547097,-1443.365335,-3396.179743,-8906.691088,4.839622642,3314.455621,-860.4582658,-6586.573784,59.70067383,64.47921387,60.12,66.79044442,0.000673828,0.189637234,0.032644006,-0.206300946
201,10,0.9,2,40.15151515,1656,-8244,592,-766,-421,-1479,-3468,-9106,-192,3342,-874,-6384,59.74608398,64.42623535,60.12,66.83313343,0.045410156,-0.052978516,0,0.042689004
201,10,0.9,2,40.90909091,1614,-8092,338,-799,-504,-1498,-3641.290432,-9337.370478,-351.6208165,3298.116952,-924.4443427,-6120.219938,59.74748219,64.41,60.13251781,66.94496185,0.001398206,-0.016235352,0.01251781,0.111828425
201,10,0.9,2,41.66666667,2634,-9328,1020,-802,-908,-1408,-3915.083778,-9586.128385,-517.4470837,3188.678349,-1018.555172,-5776.216699,59.70229595,64.41,60.17770405,67.14973181,-0.045186241,0,0.045186241,0.204769958
201,10,0.9,2,42.42424242,1774.814815,-9890.152149,1008.697725,-803.6155256,-792.1111111,-1479.909086,-4206,-9828,-710,3047,-1119,-5375,59.7,64.34616935,60.18,67.21688719,-0.00229595,-0.063830653,0.00229595,0.067155377
201,10,0.9,2,43.18181818,179.1851852,-10281.80335,970.284339,-804.9092121,-576.8888889,-1622.040394,-4501.777312,-10063.0171,-986.2551378,2816.712697,-1225.808663,-4856.905844,59.69932617,64.27,60.18067383,67.23921387,-0.000673828,-0.076169347,0.000673828,0.022326679
201,10,0.9,2,43.93939394,-680,-10438,898,-808,-461,-1724,-4804,-10272,-1244,2532,-1322,-4288,59.65391602,64.27,60.22608398,67.18623535,-0.045410156,0,0.045410156,-0.052978516
201,10,0.9,2,44.6969697,1626,-10448,48,-934,-533,-1756,-5078,-10426,-1382,2278,-1378,-3779,59.64,64.24079178,60.24,67.17,-0.013916016,-0.029208223,0.013916016,-0.016235352
201,10,0.9,2,45.45454545,1596.714972,-10478.14743,131.408,-978.6214957,-585.9274643,-1835.684472,-5677.372398,-10433.70281,-1278.746765,1915.097618,-1410.790698,-3149.511488,59.64,64.13535722,60.24,67.17,0,-0.105434561,0,0
201,10,0.9,2,46.21212121,1511.104916,-10541.27014,330.304,-1005.360267,-636.0183974,-1970.672385,-6372,-10436,-1172,1475,-1426,-2418,59.64,64.13,60.249375,67.1575,0,-0.005357216,0.009375,-0.0125
201,10,0.9,2,46.96969697,1372.537373,-10642.71915,567.696,-1025.18829,-678.1455982,-2143.818063,-6876,-10134,-1168,959,-1332,-1541,59.64,64.13029944,60.2755957,67.12253906,0,0.000299441,0.026220703,-0.034960937
201,10,0.9,2,47.72727273,1184.379887,-10787.84544,766.592,-1049.077543,-707.1818661,-2337.975827,-7076,-9588,-1404,625,-1226,-951,59.64,64.14013607,60.29742188,67.0934375,0,0.009836631,0.021826172,-0.029101563
201,10,0.9,2,48.48484848,950,-10982,850,-1088,-718,-2536,-7306,-8866,-1708,208,-1076,-30,59.64,64.1619046,60.3,67.09,0,0.021768525,0.002578125,-0.0034375
201,10,0.9,2,49.24242424,103.9078564,-12129.11309,771,-1195.024096,-607,-2760.834552,-7265.375,-9423.1875,-1965.651884,-138.6607331,-911.7211538,645.1724537,59.64,64.19292254,60.3,67.09,0,0.031017943,0,0
201,10,0.9,2,50,-614,-13166,692,-1277,-496,-3012,-7176,-10649,-2212.912786,-468.8373183,-736.4188034,1214.688226,59.64,64.26022675,60.33,67.09,0,0.067304214,0.03,0
201,10,0.9,2,50.75757576,-234,-12713,1038,-1226.5,-529.5,-3270.083905,-7086.625,-11874.8125,-2398.717295,-715.8452444,-596.9070513,1752.609885,59.64,64.35857296,60.36,67.08158152,0,0.098346209,0.03,-0.008418482
201,10,0.9,2,51.51515152,146,-12260,1384,-1176,-563,-3525,-7046,-12432,-2472,-813,-540,2333,59.64,64.45960227,60.36,66.91589864,0,0.101029312,0,-0.165682882
201,10,0.9,2,52.27272727,-798,-12813,1013,-1197,-544,-3753.774357,-8416,-6215,-1293,-593,-845,3128.78339,59.62608398,64.4475293,60.37391602,66.87,-0.013916016,-0.012072978,0.013916016,-0.045898636
201,10,0.9,2,53.03030303,-1742,-13366,642,-1218,-525,-3978,-9786,2,-114,-373,-1150,3649,59.58067383,64.34157227,60.41932617,66.87,-0.045410156,-0.105957031,0.045410156,0
201,10,0.9,3,53.78787879,-1590.959966,-13140.6875,651.9901575,-1198.46875,-589.0677938,-4185.660671,-7830,-8732,-168,-781,-695,3693,59.58,64.37808467,60.42,66.85615103,-0.000673828,0.036512408,0.000673828,-0.013848972
201,10,0.9,3,54.54545455,-1149.726576,-12645,680.3070866,-1155.5,-749.6807835,-4379.624225,-3391.065195,-7683.555556,-518.5155455,-1341.546654,92.08789565,3452.407407,59.58,64.40732139,60.42,66.82297374,0,0.029236719,0,-0.033177285
201,10,0.9,3,55.3030303,-436.1298979,-12149.3125,724.4704724,-1112.53125,-959.4533814,-4610.775667,2206.800736,-5736.444444,-1183.306953,-1929.051105,994.0995034,3005.592593,59.58,64.35460411,60.42,66.79468146,0,-0.052717281,0,-0.028292286
201,10,0.9,3,56.06060606,532,-11924,782,-1093,-1171,-4930,4962,-4688,-1842,-2201,1425,2765,59.58,64.34,60.42,66.80855469,0,-0.014604112,0,0.01387323
201,10,0.9,3,56.81818182,3332,-12544,920,-1149,-1401,-5562,4057.456393,-5613.555556,-2505.934426,-1910.37037,871.7407407,3080.518519,59.58,64.34,60.42,66.86910156,0,0,0,0.060546875
201,10,0.9,3,57.57575758,4680.341144,-13901.81475,1592.800704,-1318.753221,-1474.394457,-5541.095071,1728.912786,-7332.444444,-3163.967213,-1370.62963,-155.7407407,3666.481481,59.58,64.36485441,60.42,66.85615103,0,0.024854411,0,-0.012950535
201,10,0.9,3,58.33333333,5636.615016,-15594.01849,2687.479886,-1552.2655,-1516.763466,-5481.523476,-1446,-8258,-3462,-1080,-709,3982,59.58,64.42418322,60.42,66.82297374,0,0.059328807,0,-0.033177285
201,10,0.9,3,59.09090909,6000,-16424,3454,-1670,-1593,-5388,-7364,-5218,2296,-1151,-289,3781,59.58,64.5485096,60.42,66.79468146,0,0.124326385,0,-0.028292286
201,10,0.9,3,59.84848485,3981.925926,-14175.7037,3783.819881,-1625.223629,-2076.985758,-4644.77282,-7279.409773,-5320.710145,2284.981149,-1136.162141,-139.2290079,3576.03599,59.58,64.70668758,60.42433397,66.79,0,0.158177982,0.004333973,-0.004681457
201,10,0.9,3,60.60606061,234.0740741,-10000.2963,4027.132163,-1524.447257,-2855.548435,-3378.608632,-7049.189038,-5591.822931,2252.141246,-1095.608498,-13.16954049,3368.84975,59.58,64.82349139,60.45024042,66.79,0,0.116803807,0.025906447,0
201,10,0.9,3,61.36363636,-1784,-7752,4122,-1418,-3263,-2708,-6708.662717,-5975.811889,2197.805262,-1035.278969,89.42254725,3160.138848,59.61264401,64.87334484,60.479653,66.79,0.032644006,0.049853446,0.029412583,0
201,10,0.9,3,62.12121212,-145.8418665,-7832,1954,-1339.539362,-2587.342981,-2769.5,-6293.155732,-6417.150545,2122.298173,-961.1134553,168.7914002,2950.600853,59.64,64.90544667,60.49,66.78798373,0.027355994,0.032101828,0.010346996,-0.002016275
201,10,0.9,3,62.87878788,1992,-7912,-214,-1215,-1357,-2831,-5837.993003,-6860.31243,2025.944951,-879.0518561,225.1811634,2740.933334,59.64,64.92512701,60.49,66.74113618,0,0.019680347,0,-0.04684755
201,10,0.9,4,63.63636364,2718,-7004,-32,-679,-80,-2605,-5378.499452,-7249.771072,1909.070569,-795.0340711,258.8359817,2531.83386,59.64,64.94133717,60.49,66.68575145,0,0.016210158,0,-0.055384727
201,10,0.9,4,64.39393939,1632,-5352,-762,-143,1484,-2067,-4950,-7530,1772,-715,270,2324,59.64,64.96651093,60.49,66.64054694,0,0.025173755,0,-0.045204513
201,10,0.9,4,65.15151515,-70,-3482,914,-31,1718,-1384,-4433.997071,-7745.246701,1220.84106,-625.1521504,246.4243358,2124.102295,59.64,65.03367165,60.49,66.68352534,0,0.06716072,0,0.042978406
201,10,0.9,4,65.90909091,-194,-3748,2334,241,1698,-489,-3820.386286,-7949.552623,199.4698313,-520.3846486,194.3815621,1929.241316,59.64,65.12862386,60.49,66.72,0,0.094952209,0,0.036474659
201,10,0.9,4,66.66666667,138,-3922,2498,417,1591,202,-3307.082357,-8102.082234,-785.1363133,-419.6748225,141.8980074,1725.75968,59.64,65.23021747,60.49,66.72,0,0.101593615,0,0
201,10,0.9,4,67.42424242,614,-4544,1740,775,1360,1144,-3092,-8162,-1226,-342,117,1500,59.64,65.28862042,60.49,66.72,0,0.058402946,0,0
201,10,0.9,4,68.18181818,895.9484592,-4459.854845,1179.86273,984.6731801,1139.480548,1944.216454,-3434,-8101.942777,-210,-280.5421138,115.559219,1235.470543,59.64,65.32586075,60.49,66.72,0,0.037240334,0,0
201,10,0.9,4,68.93939394,1112.950945,-4268.598579,714.1660351,1144.743449,934.6493521,2671.485989,-3776,-8016,806,-249,115,940,59.64,65.36943961,60.49,66.67253906,0,0.043578862,0,-0.047460938
201,10,0.9,4,69.6969697,1338,-4062,410,1299,800,3340,-3410,-7974,762,-252,146,615,59.64,65.41194693,60.48907448,66.64,0,0.042507316,-0.000925517,-0.032539062
201,10,0.9,4,70.45454545,1658.668263,-3806.079966,280.0465645,1454.627588,747.7481237,3928.175429,-3402.501249,-7931.33472,748.9599636,-239.2247047,141.2695975,382.6376549,59.64,65.45006564,60.47444876,66.64,0,0.038118712,-0.014625728,0
201,10,0.9,4,71.21212121,1868,-3642,138,1617,691,4505,-3399.549608,-7887.972189,741.9998172,-209.0992126,130.1355932,181.6781617,59.64,65.51924445,60.44704351,66.64,0,0.069178811,-0.027405248,0
201,10,0.9,4,71.96969697,1886,-3846,-336,1817,500,5161,-3397.323163,-7848.623564,735.5397621,-173.9241142,117.1837924,16.12958768,59.64,65.65187177,60.41334834,66.64,0,0.13262732,-0.033695168,0
201,10,0.9,4,72.72727273,1814,-4270,-606,1973,272,5600,-3392,-7818,724,-146,107,-110,59.64,65.81116012,60.37985285,66.64,0,0.159288348,-0.033495488,0
201,10,0.9,4,73.48484848,1560,-5102,-418,2222,-149,6205,-3288.687507,-7793.212702,679.1639469,-127.1916515,100.4950898,-214.292088,59.64,65.9549589,60.35213944,66.63821916,0,0.143798783,-0.027713408,-0.001780843
201,10,0.9,4,74.24242424,1570,-5700,-264,2362,-422,6565,-3031.42471,-7769.015374,589.1812187,-110.6637996,95.17376294,-314.1732514,59.64,66.04111753,60.32211372,66.60950361,0,0.086158625,-0.030025728,-0.028715548
201,10,0.9,4,75,1436,-6306,-380,2518,-683,7090,-2674.787147,-7746.582923,473.0213169,-95.6669588,90.51256576,-405.4030561,59.64,66.03581086,60.29044447,66.55375578,0,-0.005306669,-0.031669248,-0.05574783
201,10,0.9,4,75.75757576,1252,-6526,-684,2599,-752,7401,-2273.350355,-7727.090253,349.6537428,-81.45164382,85.98804456,-483.7410676,59.64,65.98445729,60.2626613,66.48142735,0,-0.051353564,-0.027783168,-0.072328433
201,10,0.9,4,76.51515152,1072.737445,-7204.604113,-902.3307598,2850.243051,-600.6689723,7629.671112,-1881.689875,-7711.712272,238.0479977,-67.26836927,81.07674565,-544.9468516,59.64,65.9311612,60.24429381,66.40296999,0,-0.05329609,-0.018367488,-0.078457358
201,10,0.9,4,77.27272727,880,-7730,-1110,3045,-326,7837,-1554.381243,-7701.623886,157.173583,-52.36764979,75.25521536,-584.7799738,59.64419234,65.91326071,60.24,66.32289388,0.004192337,-0.017900497,-0.004293811,-0.080076105
201,10,0.9,4,78.03030303,581.0416667,-7371.769679,-1319.687961,2994.990319,-63.87465233,8074.720966,-1346,-7698,126,-36,68,-599,59.70179314,65.95806133,60.24,66.215791,0.057600801,0.044800623,0,-0.107102877
201,10,0.9,4,78.78787879,388,-6838,-1630,2908,260,8276,-1237.641688,-7709.387537,185.375,-14.36509434,57.07219649,-577.2508562,59.78043075,66.01922392,60.22101563,66.2,0.078637616,0.06116259,-0.018984375,-0.015791005
201,10,0.9,4,79.54545455,536,-6538,-2576,2829,729,8391,-1157.936871,-7743.533431,316,10.6754717,42.58906643,-518.8356164,59.82,66.05,60.18,66.2,0.039569246,0.03077608,-0.041015625,0
201,10,0.9,4,80.3030303,704,-7588,-2618,2823,1179,8417,-1082.763618,-7800.41261,446.625,31.37830189,27.56140316,-434.0025685,59.82,66.00583147,60.18,66.19234932,0,-0.044168532,0,-0.007650684
201,10,0.9,4,81.06060606,928,-8844,-1890,2779,2052,8365,-988,-7880,506,40,15,-333,59.82,65.98,60.18,66.17061438,0,-0.025831468,0,-0.021734937
201,10,0.9,4,81.81818182,1300,-9278,-1328,2684,2646,8227,-852,-8152,480,30,6,-159,59.82,65.98,60.18,66.13662086,0,0,0,-0.033993519
201,10,0.9,4,82.57575758,2624,-9324,-856,2487,3314,8002,-866.4638554,-8138.544858,633,6.323919345,22.5,-35.10383809,59.82,65.93253906,60.16621719,66.04960249,0,-0.047460938,-0.013782813,-0.087018367
201,10,0.9,4,83.33333333,3516.719314,-9610.88405,-643.1171881,2279.079023,3464.257492,7731.949858,-908,-8100,786,-28,39,76,59.82,65.83,60.12,65.91,0,-0.102539063,-0.046217187,-0.139602493
201,10,0.9,4,84.09090909,4232.945542,-10168.70345,-485.5923071,2064.207816,3567.451104,7430.518769,-1122,-7904,724,-71,4,194,59.84904824,65.92464686,60.08067988,65.87725146,0.029048244,0.094646855,-0.039320118,-0.032748543
201,10,0.9,4,84.84848485,4915.198999,-10758.67113,-371.2712725,1858.232701,3626.919164,7094.828297,-1652,-8108,588,-110,114,247,59.89055925,65.9532373,60.04108113,65.85821643,0.041511003,0.028590449,-0.039598753,-0.019035026
201,10,0.9,4,85.60606061,5706,-11142,-288,1677,3646,6722,-1471.647059,-8226.937112,683.9259259,-138.4252452,104.9259259,331.348351,59.92667099,65.7167627,60.00777948,65.83831748,0.03611174,-0.236474609,-0.033301645,-0.019898952
201,10,0.9,4,86.36363636,6704,-11288,-234,1532,3475,6260,-1111.294118,-8316.579667,862.0740741,-163.4501554,88.07407407,443.5930318,59.99280885,65.70874236,59.98578051,65.80118646,0.066137863,-0.008020339,-0.021998976,-0.037131019
201,10,0.9,4,87.12121212,8025.418286,-11216.8808,162.7831897,1321.295792,2982.215039,5532.172006,-842,-8352,958,-197,79,575,60.05918052,65.75681131,59.97054408,65.74704665,0.066371667,0.04806895,-0.015236424,-0.054139805
201,10,0.9,4,87.87878788,9440.552089,-11022.20604,810.1693726,1068.255979,2183.05082,4634.520861,-744,-8204,948,-258,144,745,60.06,65.78686441,59.95493113,65.7018711,0.000819482,0.0300531,-0.015612953,-0.045175553
201,10,0.9,4,88.63636364,10366,-10732,1150,823,1346,3802,-428,-7816,906,-300,218,851,60.06,65.81374408,59.93087156,65.70291992,0,0.026879676,-0.02405957,0.00104882
201,10,0.9,4,89.39393939,10706,-9998,1040,606,533,3137,-689.3333333,-7941.481481,914.8675799,-374.0947893,222.9696566,954.5244214,60.06,65.82900248,59.89035511,65.81708008,0,0.015258395,-0.040516447,0.114160156
201,10,0.9,4,90.15151515,10864,-8786,320,322,-623,2102,-1174.666667,-8174.518519,943.7351598,-464.4411509,224.8976583,1053.502002,60.06,65.83,59.85814716,65.82281166,0,0.000997524,-0.032207957,0.005731586
201,10,0.9,4,90.90909091,10936.72422,-7389.379264,-327.9972135,166.6458988,-1405.64994,1155.537315,-1436,-8300,996,-528,229,1132,60.06,65.83,59.82613449,65.7937037,0,0,-0.032012668,-0.02910796
201,10,0.9,4,91.66666667,10968,-6574,-922,43,-1937,321,-1308,-7844,1392,-554,248,1183,60.09785874,65.69118461,59.79670484,65.75383065,0.037858742,-0.138815388,-0.029429646,-0.03987305
201,10,0.9,4,92.42424242,10516,-7428,-1448,-82,-2203,-333,-1676.722723,-7940,1178.248307,-626.7855575,284.0582369,1169.524648,60.12,65.61,59.77376657,65.71585732,0.022141258,-0.081184612,-0.022938272,-0.037973329
201,10,0.9,4,93.18181818,10552,-29040,-5144,-522,-2086,-1282,-2292,-8036,768,-707,323,1140,60.12,65.61,59.76122802,65.69244853,0,0,-0.012538546,-0.023408795
201,10,0.9,4,93.93939394,11048,2430,1286,-587,-2231,-1995,-2786,-7840,272,-748,349,1087,60.12,65.58785156,59.76,65.70599609,0,-0.022148437,-0.001228024,0.013547563
201,10,0.9,4,94.6969697,8879.698635,-397.2412903,443,-782.1888297,-1357,-3211.121633,-3070,-7806,74,-753,375,1032,60.12,65.54,59.76,65.76,0,-0.047851563,0,0.054003906
201,10,0.9,4,95.45454545,4626,-4962,-400,-975,-483,-4017,-2748.826118,-7865.456102,341.5555556,-765.826087,396.4727959,986.8391014,60.15249029,65.54,59.72486335,65.81400391,0.032490288,0,-0.035136653,0.054003906
201,10,0.9,4,96.21212121,-2365.698635,-9109.75871,544,-1036.113086,-691,-3903,-2042.763348,-8029.801093,838.4444444,-790.3188406,417.6891445,948.3084396,60.19691062,65.52434629,59.68989254,65.83,0.044420334,-0.015653708,-0.034970802,0.015996094
201,10,0.9,4,96.96969697,-7272,-11520,1488,-1088,-899,-3789,-1338,-8278,1106,-828,451,932,60.23663983,65.42271117,59.66570751,65.83,0.039729206,-0.101635118,-0.024185034,0
201,10,0.9,4,97.72727273,-5800,-4782,-196,-1172,-194,-3870,-764,-8938,1052,-931,540,1054,60.24,65.3706106,59.64731014,65.83,0.003360172,-0.052100578,-0.018397372,0
201,10,0.9,4,98.48484848,-2549.590103,-4847.125261,-457.4254784,-1171.464333,-4.559467071,-3912.1875,-475.2912194,-11530.51216,1447.15873,-1034.29446,631.3389323,1287.621152,60.24,65.33,59.64,65.83,0,-0.040610596,-0.00731014,0
201,10,0.9,4,99.24242424,2113.753242,-5018.167362,-584.5834959,-1169.821556,128.9471404,-3946.5,-66,-13638,2092,-1179,745,1602,60.24,65.21938248,59.64,65.83,0,-0.11061752,0,0
201,10,0.9,4,100,6298.719966,-5258.625782,-684.9497654,-1167.018,207.9801776,-3969.5625,2996,-12480,2576,-1534,940,1980,60.24,65.2010055,59.6315978,65.83794061,0,-0.018376984,-0.008402198,0.00794061
201,10,0.9,1,0,8114,-5532,-866,-1163,234,-3978,1612,-12536,1030,-1791,998,2334,60.24,65.31763485,59.58494606,65.89418292,0,0.116629351,-0.04665174,0.05624231
201,10,0.9,1,0.806451613,6418.444444,-5950.789808,-1370.244795,-1081.766305,75.33333333,-3841.599028,1714,-12740,1060,-1937,977,2740,60.24,65.33,59.58,65.948511,0,0.012365154,-0.004946061,0.054328081
201,10,0.9,1,1.612903226,3269.555556,-6513.35832,-2037.233508,-910.0724624,-219.3333333,-3539.642501,1128,-13258.634,1276.385483,-2201.271513,982.5,3116.7382,60.24,65.32960597,59.58,65.98,0,-0.000394026,0,0.031488999
201,10,0.9,1,2.419354839,1574,-7012,-2370,-742,-378,-3233,542,-13992,1586,-2444,988,3422,60.24,65.29499059,59.58,65.98,0,-0.034615381,0,0
201,10,0.9,1,3.225806452,1592.804155,-7434.427574,-2325.460121,-607.3168331,-342.919755,-2977.712463,1016,-14812,1804,-2544,978,3606,60.23446289,65.24606416,59.57446289,65.99001154,-0.005537109,-0.048926432,-0.005537109,0.010011541
201,10,0.9,1,4.032258065,1650.332465,-7866.991021,-2196.460363,-474.0320145,-258.1592649,-2720.732141,-98,-15588,2154,-2592,821,4138,60.18553711,65.19462058,59.52553711,66.0944771,-0.048925781,-0.051443585,-0.048925781,0.104465554
201,10,0.9,1,4.838709677,1748.258697,-8249.94068,-1989.930544,-343.5887793,-154.4388974,-2459.295588,-62,-14958,2372,-2644,948,4310,60.18,65.14119238,59.52,66.16663352,-0.005537109,-0.053428193,-0.005537109,0.072156428
201,10,0.9,1,5.64516129,1888.25662,-8523.526893,-1712.800484,-217.4303628,-62.47901991,-2190.639357,191.9412,-14928.13992,1978,-2642.65249,997.2222143,4521.06092,60.18059841,65.11045498,59.51940159,66.2,0.000598412,-0.030737399,-0.000598412,0.033366477
201,10,0.9,1,6.451612903,2072,-8628,-1372,-97,-13,-1912,660,-14902,1584,-2638,1042,4773,60.22285365,65.14896234,59.47714635,66.2,0.042255241,0.038507361,-0.042255241,0
201,10,0.9,1,7.258064516,3167.543508,-8314.449761,-246.4185611,41.03144952,2.999617152,-1616.369638,1340,-14732,1794,-2461,1130,5099,60.24,65.19831549,59.4684022,66.20980256,0.017146346,0.049353145,-0.008744148,0.009802565
201,10,0.9,1,8.064516129,4160,-7940,694,122,10,-1308,270.240622,-14112.49135,1692,-2219.307253,1287.787989,5400.987028,60.24,65.24638388,59.51505394,66.26422959,0,0.04806839,0.04665174,0.05442703
201,10,0.9,1,8.870967742,3853,-7835.550239,645.8923077,123.5229531,-19.5,-981.4704422,-1782,-13616,1590,-2070,1521,5644,60.24,65.28927467,59.49785874,66.27,0,0.04289079,-0.017195196,0.005770405
201,10,0.9,1,9.677419355,3546,-7792,588,125,-49,-671,-4924.240622,-15330,2148,-2243,2010.327468,5825.972188,60.24,65.33,59.46,66.27,0,0.04072533,-0.037858742,0
201,10,0.9,2,10.48387097,3701,-7944.990633,571.1076923,150.4385862,-32,-415.9975082,-7084,-17044,2706,-2416,2366,5917,60.24,65.3838193,59.50101563,66.3246875,0,0.053819298,0.041015625,0.0546875
201,10,0.9,2,11.29032258,3856,-8148,564,190,-15,-178,-6616.444444,-16488.3236,2476.194821,-2372.008501,2308.650883,5715.748585,60.24,65.3890625,59.52,66.35,0,0.005243202,0.018984375,0.0253125
201,10,0.9,2,12.09677419,3749.477366,-8244.312948,579.7233378,226.9022084,-24.59259259,81.53103779,-5447.555556,-15029.07995,1879.378983,-2248.804979,2143.416159,5203.128804,60.24,65.33300781,59.52,66.35,0,-0.056054687,0,0
201,10,0.9,2,12.90322581,3492.73251,-8318.378696,615.89112,262.8399931,-42.40740741,339.1271274,-3928,-12977.94742,1054.452035,-2059.545903,1880.514768,4515.842357,60.24,65.33,59.52,66.39640876,0,-0.003007813,0,0.046408761
201,10,0.9,2,13.70967742,3180,-8348,656,279,-52,545,-2408.444444,-10646.60435,140.3135225,-1817.387737,1530.165652,3790.590941,60.24,65.33,59.52,66.49,0,0,0,0.093591239
201,10,0.9,2,14.51612903,2761.699868,-8263.119048,709.1445783,245.5,-45.6475,696.8603344,-1239.555556,-8346.729089,-724.137005,-1535.486947,1102.587749,3164.076256,60.24,65.33,59.52,66.53829252,0,0,0,0.048292525
201,10,0.9,2,15.32258065,2262,-8100,744,212,-31,800,-772,-6390,-1400,-1227,608,2773,60.23756908,65.32716393,59.52,66.59665933,-0.002430921,-0.002836074,0,0.058366801
201,10,0.9,2,16.12903226,1717.74474,-7848.880952,566,266.5,12.6475,860.9934593,-2336,-4762,-1872,-723,-414,2604,60.21676601,65.30289368,59.52,66.68430335,-0.020803072,-0.024270251,0,0.087644024
201,10,0.9,2,16.93548387,1290,-7676,388,321,48,889,-2004.004828,-2186.029319,-2039.244238,-338.9574004,-1510.328586,2353.333419,60.19095417,65.27277986,59.52,66.87680858,-0.025811837,-0.03011381,0,0.192505229
201,10,0.9,2,17.74193548,1120,-8502,1486,275,46,887,-1510,-518,-2106,9,-2135,1994,60.18,65.26,59.52,67.10235793,-0.01095417,-0.012779865,0,0.225549346
201,10,0.9,2,18.5483871,1000,-8266,1374,217,33,886,-1163.769195,-830.3201062,-1418.444444,391.1845694,-2013.333987,1348.59613,60.18,65.26,59.52,67.19183545,0,0,0,0.089477521
201,10,0.9,2,19.35483871,820.3333333,-8090.537029,1239.569685,147.8243946,2.151843318,818.0100423,-860.2179307,-1488.862435,-141.5555556,768.5962758,-1741.667974,458.8170024,60.18,65.25297356,59.52739182,67.28371076,0,-0.007026445,0.007391824,0.091875314
201,10,0.9,2,20.16129032,706,-7928,1160,87,-33,700,-730,-2076,546,1066,-1460,-390,60.18,65.19840135,59.57219769,67.39078153,0,-0.054572201,0.044805864,0.107070773
201,10,0.9,2,20.96774194,795,-7703.301429,1185,49.66493255,-53.11428571,591.3109958,-950.625,-2478.951065,313.5,1267.323453,-1185.633002,-1132.70116,60.17836733,65.13140342,59.58867423,67.39073624,-0.001632672,-0.066997929,0.016476543,-4.53E-05
201,10,0.9,2,21.77419355,884,-7566,1210,20,-77,475,-1436,-2850.309986,-198,1426.874514,-882.0242802,-1862.562949,60.17094377,65.04162017,59.59764959,67.35001268,-0.007423562,-0.089783257,0.008975363,-0.040723556
201,10,0.9,2,22.58064516,792,-8094,1142,-6,-137,354,-1921.375,-3170.513913,-709.5,1574.988318,-608.4034184,-2531.893263,60.15860162,64.94154901,59.60369412,67.28563696,-0.012342144,-0.100071159,0.006044521,-0.06437572
201,10,0.9,2,23.38709677,174,-7790,1316,-23,-125,249,-2142,-3420,-942,1742,-424,-3093,60.14253093,64.84637277,59.60801718,67.20726302,-0.016070689,-0.095176237,0.004323062,-0.07837394
201,10,0.9,2,24.19354839,-50.02747928,-8089,1397.029412,-80.41910462,-126.7368421,104.402935,-1951.090909,-3577.304218,-931.7142857,1950.672923,-333.4187034,-3538.114425,60.12392174,64.77127428,59.61182817,67.1245448,-0.018609197,-0.075098492,0.003810988,-0.082718215
201,10,0.9,2,25,-140,-8388,1432,-154,-131,-48,-1742,-3738,-906,2149,-256,-3899,60.09525504,64.716281,59.61633646,67.04713626,-0.028666699,-0.054993276,0.004508299,-0.077408545
201,10,0.9,2,25.80645161,228,-8363.061728,1326.748201,-213.5250873,-146.358396,-170.1229767,-1721.52278,-4017.651256,-815.2589046,2299.671424,-138.9148086,-4176.590004,60.05641514,64.69069815,59.62275146,66.98469133,-0.038839895,-0.025582856,0.006414994,-0.062444931
201,10,0.9,2,26.61290323,596,-8308,1152,-257,-163,-300,-1702,-4396,-690,2429,-44,-4437,60.01866068,64.73999593,59.63228253,66.94686395,-0.037754469,0.049297781,0.009531074,-0.037827373
201,10,0.9,2,27.41935484,320.2274011,-8175.129111,979.2517986,-274.8698924,-169.9047619,-487.9082443,-1569.117777,-4960.343969,-574.0476616,2537.733628,1.80098532,-4748.945598,59.99075822,64.74796875,59.64978117,66.94,-0.027902455,0.007972821,0.017498639,-0.006863955
201,10,0.9,2,28.22580645,-2,-8064,876,-291,-173,-682,-1327.205391,-5635.498389,-463.3571641,2636.559515,35.12271488,-5078.037953,59.97288834,64.64611328,59.69199261,66.94,-0.017869884,-0.101855469,0.042211442,0
201,10,0.9,2,29.03225806,-80.22740113,-8050.80916,945,-327.08032,-159.5,-829.3251264,-1108,-6130,-414,2754,48,-5379,59.9566729,64.52375,59.73043303,66.98,-0.016215439,-0.122363281,0.038440411,0.04
201,10,0.9,2,29.83870968,-112,-8046,1014,-354,-146,-970,-962,-6360,-664,2921,-77,-5627,59.93404802,64.48,59.76694342,67.01485597,-0.022624875,-0.04375,0.036510397,0.034855967
201,10,0.9,2,30.64516129,202.9425287,-8129,891,-355.9673255,-152.7153285,-1144.860988,-1018,-6406,-810,3049,-258,-5746,59.89226968,64.48,59.79973313,66.90888889,-0.041778337,0,0.032789705,-0.105967078
201,10,0.9,2,31.4516129,688,-8212,768,-358,-169,-1287,-1312,-6302,-944,3219,-577,-5930,59.88,64.4657947,59.8340619,66.8809375,-0.012269685,-0.0142053,0.034328775,-0.027951389
201,10,0.9,2,32.25806452,976.4243777,-7877,906.8834356,-408.428638,-212.8893227,-1352.593576,-1516,-6264,-836,3326,-778,-6063,59.88,64.3616746,59.87153196,66.93699219,0,-0.104120104,0.037470059,0.056054687
201,10,0.9,2,33.06451613,1280,-7542,1062,-502,-283,-1404,-1782,-6278,-658,3440,-982,-6296,59.85264401,64.24609209,59.92019176,66.88530873,-0.027355994,-0.115582501,0.048659795,-0.051683453
201,10,0.9,2,33.87096774,1744,-8964,1082,-615,-373,-1460,-2039.293013,-6564.496433,-483.0806452,3519.782473,-1006.929048,-6481.082994,59.82067383,64.11683193,59.97900245,66.72984222,-0.031970178,-0.129260161,0.058810689,-0.155466511
201,10,0.9,2,34.67741935,1066,-8528,838,-590,-388,-1411,-2308,-7066,-298,3590,-1015,-6645,59.86608398,63.96303764,60.03598952,66.59290814,0.045410156,-0.153794293,0.056987073,-0.136934079
201,10,0.9,2,35.48387097,1292.705957,-8491.369099,685.96875,-609.0227273,-393.3052147,-1433.5,-2674.167498,-7642.186631,-25.19851117,3663.014829,-928,-6816.791124,59.87806206,63.94579992,60.08419926,66.60486891,0.011978073,-0.017237722,0.048209744,0.011960765
201,10,0.9,2,36.29032258,1710,-8480,614,-644,-400,-1456,-2942,-8140,148,3734,-841,-6942,59.86454586,64.04128638,60.11958113,66.77431036,-0.013516202,0.095486464,0.035381866,0.169441448
201,10,0.9,2,37.09677419,2272.294043,-8734.379974,977,-690.7304373,-722.9447853,-1382,-2999.949533,-8367.547281,24.63649357,3818.352518,-880.5122094,-7002.322266,59.84259221,64.15325972,60.06,66.97384048,-0.021953649,0.111973336,-0.059581128,0.199530124
201,10,0.9,2,37.90322581,2644,-9288,1340,-722,-1040,-1308,-3048,-8552,-204,3868,-969,-7029,59.81733469,64.19842773,60.00046069,67.08865203,-0.025257515,0.045168015,-0.059539305,0.11481155
201,10,0.9,2,38.70967742,646,-10591.62003,1319.746868,-722.4674047,-859.811138,-1399.890392,-3124.10161,-8753.87003,-437.0547142,3850.664423,-1158.128885,-6975.133451,59.77981787,64.0924707,60.0374876,66.98836634,-0.037516823,-0.105957031,0.037026908,-0.100285696
201,10,0.9,2,39.51612903,-1352,-11596,1252,-723,-566,-1569,-3221.08621,-8951.738006,-707.9332636,3802.521795,-1472.309198,-6833.189203,59.74213249,64.07460411,60.08158004,66.91108388,-0.037685383,-0.017866592,0.044092433,-0.077282455
201,10,0.9,2,40.32258065,-706,-10018,-50,-819,-346,-1750,-3355.027705,-9168.736978,-1005.845181,3729.368269,-1825.584912,-6632.650353,59.70710955,64.12732139,60.11845924,66.87148594,-0.035022939,0.052717281,0.0368792,-0.03959794
201,10,0.9,2,41.12903226,1216,-10144,398,-898,-489,-1748,-3542,-9428,-1320,3637,-2132,-6403,59.66584174,64.10930601,60.09,66.945,-0.041267804,-0.018015384,-0.028459236,0.07351406
201,10,0.9,2,41.93548387,728,-9830,878,-953,-640,-1875,-3980.65795,-9753.433276,-1746.301977,3452.132463,-2387.616004,-6101.23965,59.61854008,64.05048084,60.06131895,67.01693873,-0.047301667,-0.058825166,-0.02868105,0.071938734
201,10,0.9,2,42.74193548,622.9918974,-10245.6475,916.2598527,-984.2504924,-626.5,-2062.983966,-4762.752124,-10156.12918,-2204.150988,3134.405096,-2625.899054,-5670.398237,59.58513079,63.99866795,60.09575819,66.95669041,-0.033409284,-0.051812895,0.034439243,-0.060248321
201,10,0.9,2,43.5483871,534,-10802,944,-1011,-613,-2261,-5744,-10640,-2418,2739,-2817,-5119,59.58,64.00019886,60.1516909,66.94,-0.005130792,0.001530916,0.055932711,-0.016690413
201,10,0.9,2,44.35483871,272.1533646,-11017.75293,1023.516903,-1038.550065,-671.5001058,-2411.05487,-7200,-11310,-2400,2163,-2946,-4247,59.58,64.05071352,60.22878203,66.94,0,0.050514656,0.077091127,0
201,10,0.9,2,45.16129032,-101.1715867,-11172.56586,1134.144012,-1067.215598,-788.4446561,-2547.448063,-8135.856603,-11310,-2134.788601,1589.54049,-2944.393805,-3384.210409,59.61,64.10348745,60.27226572,66.91433333,0.03,0.052773928,0.043483691,-0.025666667
201,10,0.9,2,45.96774194,-396,-11372,1226,-1107,-876,-2709,-8886,-11310,-1864,1049,-2940,-2534,59.63819483,64.12699219,60.30832031,66.85941667,0.028194825,0.023504741,0.036054591,-0.054916667
201,10,0.9,2,46.77419355,-531.5220923,-11645.01019,1294.671104,-1194.465218,-917.9257143,-2932.849213,-9656.11383,-10874.39206,-1835.907155,556.1830602,-2801.919648,-1723.679427,59.59732535,64.0709375,60.3534375,66.799,-0.040869479,-0.056054687,0.045117187,-0.060416667
201,10,0.9,2,47.58064516,-631.7629449,-12011.17695,1353.224441,-1317.256011,-950.1295238,-3198.873016,-10361.15033,-9841.895228,-1821.52694,97.5171485,-2471.556111,-925.5037685,59.55973313,64.11444444,60.36,66.81074074,-0.037592218,0.043506944,0.0065625,0.011740741
201,10,0.9,2,48.38709677,-814,-12562,1378,-1412,-963,-3460,-10780,-8624,-1800,-302,-2058,-69,59.52694342,64.26279835,60.36,66.86725652,-0.032789705,0.148353909,0,0.056515775
201,10,0.9,2,49.19354839,-1524,-13906,1134,-1458,-753,-3698,-10916,-7116,-1750,-619,-1457,915,59.48293303,64.24348745,60.39,66.84273039,-0.044010397,-0.019310907,0.03,-0.024526126
201,10,0.9,2,50,-1078.559214,-12543,328.6444979,-1425.282569,-731.7307692,-3989.39391,-10690,-6086,-1720,-790,-1070,1502,59.46,64.19071352,60.42,66.77512447,-0.022933025,-0.052773928,0.03,-0.067605916
201,10,0.9,2,50.80645161,-472,-11180,-304,-1352,-725,-4240,-10616.57709,-8778.148148,-552.5564501,-1034.169602,-1175.777778,1929.306458,59.46,64.14019886,60.42,66.67399367,0,-0.050514656,0,-0.101130808
201,10,0.9,2,51.61290323,-226,-12424,380,-1211,-877,-4371,-10575.06095,-13777.85185,1650.830978,-1294.029245,-1372.222222,2292.928691,59.46,64.13,60.4245929,66.62360403,0,-0.010198863,0.004592896,-0.050389637
201,10,0.9,3,52.41935484,-618,-13068,1150,-1177,-1040,-4473,-10466,-16470,3094,-1415,-1478,2667,59.46,64.13,60.45172302,66.60092852,0,0,0.027130127,-0.022675508
201,10,0.9,3,53.22580645,-284,-12600,1278,-1180,-1209,-4797,-4746,-8382,3402,660,-208,3083,59.46,64.08847168,60.48141663,66.58379754,0,-0.04152832,0.029693604,-0.01713098
201,10,0.9,3,54.03225806,1228,-12090,448,-1352,-996,-5085,3682,-6384,5460,-1207,1393,2450,59.46,64.06,60.49,66.56332081,0,-0.02847168,0.008583374,-0.020476733
201,10,0.9,3,54.83870968,2900.840154,-13162.81481,1510.444444,-1546.532984,-1091.871386,-5297.967482,6107.616087,-4108.906252,-957,-2132.09423,841.3101527,3089.20146,59.46,64.06,60.49,66.54192384,0,0,0,-0.021396963
201,10,0.9,3,55.64516129,4507.642299,-15155.18519,3483.555556,-1746.96272,-1301.742772,-5472.594852,7026,-2786,-7374,-2539,-6,3758,59.46,64.06433397,60.49,66.51950568,0,0.004333973,0,-0.022418162
201,10,0.9,3,56.4516129,5226,-16228,4546,-1912,-1509,-5545,2741.124232,-6277,-4508.566598,-1872.017758,-665.8101527,3803.79854,59.46,64.09024042,60.49,66.4929945,0,0.025906447,0,-0.026511182
201,10,0.9,3,57.25806452,4450.366389,-15788.31077,4422.592593,-2052.256881,-1658.457855,-5372.730397,-3338,-9768,-468,-1057,-1030,3820,59.46,64.119653,60.50095417,66.45001005,0,0.029412583,0.01095417,-0.042984446
201,10,0.9,3,58.06451613,2745.399446,-14645.06599,4193.407407,-2172.795107,-1805.418756,-4936.460793,-6218,-5838,1404,-857,-445,3668,59.46,64.12699219,60.52676601,66.3938465,0,0.007339184,0.025811837,-0.056163555
201,10,0.9,3,58.87096774,1044,-13062,4070,-2224,-1999,-4357,-6117.92059,-6157.42374,1073.287027,-1441,202.8419775,3526.777164,59.46,64.0709375,60.54756908,66.35438056,0,-0.056054687,0.020803072,-0.039465944
201,10,0.9,3,59.67741935,-687.1621881,-8847.233712,4143,-2127.966667,-2430.315962,-3041.803304,-5902,-6666,556,-2025,576,3402,59.47714635,64.07603181,60.53285365,66.35,0.017146346,0.005094306,-0.014715426,-0.004380555
201,10,0.9,3,60.48387097,-1724,-5490,4216,-1956,-2745,-2032,-5424.491174,-7092.234085,143.2916886,-1831.71875,504.75,3314.039565,59.51940159,64.12673392,60.49059841,66.35,0.042255241,0.050702117,-0.042255241,0
201,10,0.9,3,61.29032258,3352,-7000,-302,-1786,-886,-2644,-4675.158821,-7538.15252,-279.5740545,-1406.5,348,3247.306202,59.52,64.15140484,60.49,66.38808467,0.000598412,0.024670919,-0.000598412,0.038084673
201,10,0.9,3,62.09677419,3083.798319,-6425.925138,-1168.80545,-1144.23572,721.2665155,-2419.840253,-3983.747058,-7889.494695,-609.1527705,-981.28125,191.25,3167.419737,59.52,64.16935317,60.49,66.42,0,0.017948332,0,0.031915327
201,10,0.9,4,62.90322581,2544,-5454,-1470,-438,1701,-1971,-3680,-8032,-742,-788,120,3040,59.52,64.18944404,60.49,66.42,0,0.020090863,0,0
201,10,0.9,4,63.70967742,1605.691877,-4459.984939,-315.7777778,-120.9150874,1959.957601,-1383.117012,-3751,-7895,162,-792,225,2621.061886,59.52,64.22164438,60.49,66.39999593,0,0.032200344,0,-0.020004071
201,10,0.9,4,64.51612903,432.1792717,-3447.548025,1827.777778,111.7930907,2125.034356,-609.0302551,-3822,-7758,1066,-796,330,2142,59.52,64.26581488,60.49,66.35069815,0,0.044170499,0,-0.049297781
201,10,0.9,4,65.32258065,-144,-2984,2982,333,2183,215,-3329,-7887,-384,-681.6978448,272.9372937,1919.897556,59.52,64.30216124,60.45191533,66.35,0,0.036346356,-0.038084673,-0.000698148
201,10,0.9,4,66.12903226,59.37555586,-3443.407407,2329.675461,575.4294569,2027.804505,1108.377085,-2836,-8016,-1834,-495,178,1729,59.52,64.35645425,60.42,66.35300781,0,0.054293012,-0.031915327,0.003007813
201,10,0.9,4,66.93548387,508.5288895,-4296.592593,1071.1287,807.804627,1726.60901,2063.144005,-3192.494658,-7911,-1174.157221,-321.0617908,83.56270627,1517.381563,59.52,64.49909007,60.42,66.4090625,0,0.142635822,0,0.056054688
201,10,0.9,4,67.74193548,962,-4756,254,1007,1526,2902,-3776,-7806,-56,-216,27,1256,59.52,64.60386098,60.44000407,66.39999593,0,0.104770906,0.020004071,-0.009066571
201,10,0.9,4,68.5483871,1402.709324,-4500.644928,94.43183813,1165.327326,1478.060841,3559.098921,-4218,-8402,884,-212,101,810,59.52,64.68164701,60.48930185,66.35069815,0,0.077786036,0.049297781,-0.049297781
201,10,0.9,4,69.35483871,1724,-4232,-48,1300,1441,4136,-3526,-8240,906,-196,132,566,59.52,64.76887923,60.44847168,66.35,0,0.087232211,-0.040830173,-0.000698148
201,10,0.9,4,70.16129032,1841.076509,-4211.355072,-383.7060119,1413.095176,1399.305551,4664.24692,-3157.679259,-8302,248.6953007,-151.5066424,93.39119601,330.9280367,59.52,64.85339218,60.42,66.35577041,0,0.084512954,-0.02847168,0.005770405
201,10,0.9,4,70.96774194,1890,-4204,-770,1526,1339,5166,-2992,-8364,-498,-78,42,126,59.52,64.92743974,60.42,66.41019744,0,0.074047559,0,0.05442703
201,10,0.9,4,71.77419355,1800.651099,-4689.997598,-1126.527387,1670.122302,1145.401096,5669.854727,-3140,-7864,-610,40,23,-21,59.52,65.12409558,60.40625845,66.36316617,0,0.19665584,-0.013741548,-0.047031264
201,10,0.9,4,72.58064516,1668,-5488,-1326,1817,876,6170,-3116,-8234,-282,70,7,-113,59.52,65.39639928,60.36279949,66.20609631,0,0.272303698,-0.043458958,-0.157069862
201,10,0.9,4,73.38709677,1586.411019,-6220.661513,-1191.25,1957.919699,629.9570762,6691.556319,-3052.687671,-8249.441176,203.8644222,87.30867209,1.285714286,-290.9083982,59.53095417,65.4,60.34177176,66.16442452,0.01095417,0.003600723,-0.021027738,-0.041671788
201,10,0.9,4,74.19354839,1526,-6702,-990,2061,398,7170,-2924,-8254,512,104,-1,-464,59.55676601,65.4,60.32657747,66.13591462,0.025811837,0,-0.015194286,-0.028509903
201,10,0.9,4,75,1492,-6776,-876,2101,211,7535,-2277.537164,-8074,447,132.1061966,1.5,-567.7594059,59.57756908,65.4,60.30925348,66.12136429,0.020803072,0,-0.017323987,-0.014550327
201,10,0.9,4,75.80645161,1545.407407,-6905.433714,-1054.351212,2138.323505,22.01900883,7840.027552,-1656,-7894,382,160,4,-618,59.58,65.43364347,60.27503591,66.12,0.002430921,0.033643466,-0.034217574,-0.00136429
201,10,0.9,4,76.61290323,1644.592593,-7088.714861,-1473.146869,2175.517833,-152.9904956,8111.815575,-1567.673471,-7933.52,393.648,179.1001121,1.789671518,-617.247014,59.58,65.54,60.24,66.12,0,0.106356534,-0.03503591,0
201,10,0.9,4,77.41935484,1698,-7312,-1958,2220,-230,8334,-1520.099623,-8027.76,421.424,195.5034132,-3.910985447,-614.9010421,59.59251781,65.62364636,60.24,66.01242825,0.01251781,0.083646356,0,-0.107571748
201,10,0.9,4,78.22580645,1478,-7626,-2530,2283,-141,8494,-1488.68904,-8140.24,454.576,210.0566582,-11.70647817,-610.8315632,59.61785874,65.70450481,60.23740898,65.8792321,0.025340932,0.080858452,-0.002591023,-0.133196155
201,10,0.9,4,79.03225806,1501.001488,-7765.167706,-2508.336798,2328.420616,119.1050284,8647.688259,-1448.852304,-8234.48,482.352,223.6066022,-20.20131393,-604.9080562,59.63770405,65.75472716,60.20103717,65.78723292,0.019845308,0.050222354,-0.036371809,-0.091999182
201,10,0.9,4,79.83870968,1560,-7918,-2450,2351,533,8732,-1376,-8274,494,237,-28,-597,59.64,65.71253906,60.11038679,65.72418812,0.00229595,-0.042188099,-0.09065038,-0.063044793
201,10,0.9,4,80.64516129,1764.805197,-8498.639451,-2049.634132,2324.787775,1135.508927,8666.8184,-1131.61086,-8049,365,252.8993441,-37.24636175,-554.6151552,59.64,65.61,60,65.69,0,-0.102539063,-0.110386789,-0.034188122
201,10,0.9,4,81.4516129,2150,-9124,-1568,2266,1799,8534,-936,-7824,236,262,-43,-480,59.67184016,65.66047832,60.03785874,65.69,0.031840159,0.050478323,0.037858742,0
201,10,0.9,4,82.25806452,2832.433041,-9369.217866,-1348.02907,2158.027403,2300.999067,8362.253705,-1024,-7948,375.9275534,259.6424915,-38.54545455,-384.295778,59.70694207,65.68891486,60.05505394,65.68017653,0.035101915,0.028436539,0.017195196,-0.00982347
201,10,0.9,4,83.06451613,3774,-9568,-1246,1987,2809,8107,-1112,-8072,578,253,-29,-283,59.72475048,65.67227732,60.0084022,65.57464183,0.017808406,-0.016637539,-0.04665174,-0.1055347
201,10,0.9,4,83.87096774,4876,-9808,-1498,1715,3453,7654,-914,-7782,680,222,-13,-207,59.73998785,65.64283177,60,65.50418812,0.015237369,-0.029445556,-0.008402198,-0.070453708
201,10,0.9,4,84.67741935,5786.997699,-10106.77925,-1209.528996,1492.357635,3510.162566,7206.068389,-628.3088198,-8046,796.7557662,190.700872,-0.247220484,-88.52725357,59.76,65.61,60,65.47,0.020012152,-0.032831767,0,-0.034188122
201,10,0.9,4,85.48387097,6616,-10426,-724,1285,3528,6764,-366,-8310,906,157,14,43,59.80207175,65.56051026,60,65.50025408,0.04207175,-0.049489741,0,0.030254081
201,10,0.9,4,86.29032258,7402,-10732,-324,1074,3273,6332,-225.7325976,-8215,992.3091331,119.2726691,38.71185518,148.5742036,59.82,65.54645996,59.9953745,65.56521993,0.01792825,-0.014050298,-0.004625502,0.064965854
201,10,0.9,4,87.09677419,8553.330027,-10536.90041,166.6527605,822.4775989,2793.496125,5738.757029,-100,-8120,1060,74,66,267,59.82,65.60354004,59.94948741,65.67878273,0,0.057080078,-0.045887091,0.113562791
201,10,0.9,4,87.90322581,9776,-10076,524,580,2115,4985,109.5016393,-8330,1097.190005,13.51415525,86.5,457.1863954,59.83416243,65.61,59.9264747,65.69,0.014162426,0.006459961,-0.023012711,0.011217275
201,10,0.9,4,88.70967742,10764,-9020,618,396,1171,3952,244,-8540,1144,-62,107,669,59.88,65.61,59.90913787,65.69,0.045837574,0,-0.01733683,0
201,10,0.9,4,89.51612903,11186.32208,-8345.998233,503.805978,302.0211287,303.3781993,2948.311339,-231,-8216,1459.39823,-155.120684,130.676835,850.8304104,59.96369632,65.66047832,59.89501198,65.69,0.083696316,0.050478323,-0.014125891,0
201,10,0.9,4,90.32258065,11364,-7768,284,234,-438,2016,-706,-7892,1738,-266,159,1019,60,65.68261719,59.88506992,65.69,0.036303684,0.022138865,-0.009942057,0
201,10,0.9,4,91.12903226,11276,-7158,16,177,-967,1226,-655.7037037,-7995.703704,1610.962963,-397.8184955,195.8728575,1178.404146,60,65.61738281,59.88028459,65.69,0,-0.065234375,-0.004785329,0
201,10,0.9,4,91.93548387,10631.68803,-7354.148148,21.03703704,105.2463913,-962.7701088,278.9762123,-562.2962963,-8188.296296,1375.037037,-545.5588151,240.8230097,1328.177565,60.02214126,65.61,59.88,65.69,0.022141258,-0.007382812,-0.000284589,0
201,10,0.9,4,92.74193548,9176.072647,-7844.518519,33.62962963,24.76744287,-950.0643482,-832.7504483,-512,-8292,1248,-689,292,1455,60.06,65.61,59.88,65.69,0.037858742,0,0,0
201,10,0.9,4,93.5483871,7212.124997,-8482,50,-65.86675786,-928.8585877,-1958.945691,-740.6666667,-8224.592593,1346.518519,-822.5658117,351.2208357,1553.066775,60.06,65.51429688,59.87268986,65.70460411,0,-0.095703125,-0.00731014,0.014604112
201,10,0.9,4,94.35483871,5042.816236,-9119.481481,66.37037037,-168.0861235,-899.1286965,-2949.375224,-1165.333333,-8099.407407,1529.481481,-952.208536,419.9926111,1636.973425,60.06,65.47,59.85429249,65.73416853,0,-0.044296875,-0.018397372,0.029564421
201,10,0.9,4,95.16129032,2971.117519,-9609.851852,78.96296296,-283.3205667,-860.8505441,-3653.804758,-1394,-8032,1628,-1075,496,1724,60.06,65.47,59.83010746,65.75732139,0,0,-0.024185034,0.02315286
201,10,0.9,4,95.96774194,1300,-9806,84,-413,-814,-3922,-1038,-8058,1530,-1187,585,1822,60.07371094,65.43390625,59.79513665,65.76,0.013710938,-0.03609375,-0.034970802,0.002678608
201,10,0.9,4,96.77419355,-242.6680899,-9670.148148,-111.4814815,-630.649733,-671.6963211,-3883.888889,-1134,-8400,1202,-1284,638,1875,60.12,65.33,59.76,65.76,0.046289062,-0.10390625,-0.035136653,0
201,10,0.9,4,97.58064516,-1672.556267,-9417.851852,-474.5185185,-890.9359776,-389.04472,-3813.111111,-1105,-8349,997.0870827,-1364.211039,672.3060741,1935.250217,60.16628906,65.27394531,59.76,65.79722794,0.046289063,-0.056054687,0,0.037227942
201,10,0.9,4,98.38709677,-2302,-9282,-670,-1017,-29,-3775,-1076,-8298,900,-1406,717,2011,60.18,65.26,59.754138,65.85180548,0.013710938,-0.013945312,-0.005861999,0.054577533
201,10,0.9,4,99.19354839,48,-11236,896,-372,524,-4021,-1441,-9019.75009,1085,-1394,937.6966732,2146.028235,60.18,65.26,59.71212701,65.90538147,0,0,-0.042010991,0.05357599
201,10,0.9,4,100,4704,-3724,-750,-598,514,-4496,-1806,-10394,1270,-1382,1149,2275,60.18,65.23047832,59.66930999,65.91,0,-0.029521677,-0.042817016,0.004618535
201,10,0.9,1,0,8129.414628,-5166.970249,-1646.715622,-775.2903431,167.0020797,-4369.27246,-331.4733219,-12449.24991,1219.705634,-1525.508621,1188,2322.688139,60.18,65.18,59.64,65.91,0,-0.050478323,-0.029309994,0
201,10,0.9,1,0.78125,9844,-7226,-2562,-866,-279,-4063,1394,-13852,1060,-1754,1203,2385,60.22101563,65.18,59.64,65.91,0.041015625,0,0,0
201,10,0.9,1,1.5625,4308,-8222,-4338,-704,-437,-3304,1718,-12540,-588,-1913,912,2821,60.2315978,65.18,59.6315978,65.91980256,0.010582177,0,-0.008402198,0.009802565
201,10,0.9,1,2.34375,-980,-8872,-936,-383,-47,-3379,782,-12508,-288,-1945,857,3079,60.18494606,65.18,59.58494606,65.97422959,-0.04665174,0,-0.04665174,0.05442703
201,10,0.9,1,3.125,-699.3687985,-8810.518519,-937.3333333,-209.0850896,23.01320823,-3303.650673,644.5329039,-13337.67462,617.7801744,-2182.42603,959.5,3302.183161,60.18,65.12305664,59.58,65.98,-0.004946061,-0.056943359,-0.004946061,0.005770405
201,10,0.9,1,3.90625,6.153178271,-8656.814815,-940.6666667,-55.12453906,76.49246209,-3104.615488,558,-14628,1460,-2394,1062,3588,60.18,65.04047329,59.57946502,65.98062414,0,-0.082583354,-0.000534979,0.000624143
201,10,0.9,1,4.6875,932.0084883,-8457,-945,73.77294844,115.1342649,-2822.413636,436,-15462,1654,-2366,1009,4224,60.18,65.07895845,59.54016461,66.02647462,0,0.03848516,-0.039300412,0.04585048
201,10,0.9,1,5.46875,1873.63969,-8257.185185,-949.3333333,172.4986696,140.6351199,-2497.56431,234.3503401,-15938.64894,2068.691673,-2392,1016.878924,4543.139275,60.18,65.1188143,59.52,66.04354004,0,0.039855855,-0.020164609,0.017065416
201,10,0.9,1,6.25,2626.489341,-8103.481481,-952.6666667,235.9439212,154.6915305,-2170.5867,102,-16158,2362,-2418,1037,4784,60.18,65.14844838,59.52,65.98645996,0,0.029634079,0,-0.057080078
201,10,0.9,1,7.03125,2986,-8042,-954,259,159,-1882,436,-16058.55346,2314.76386,-2413.024375,1119.996076,5011.734267,60.18,65.17173414,59.52,65.98,0,0.023285754,0,-0.006459961
201,10,0.9,1,7.8125,3058.28627,-8042.124402,-904.8482115,260.0534984,149.5686243,-1627.338768,770,-15804,2200,-2399,1232,5235,60.18,65.17930185,59.51960297,65.98069815,0,0.007567716,-0.00039703,0.000698148
201,10,0.9,1,8.59375,3099.752391,-8042.533207,-767.9046346,260.8901857,124.865873,-1372.638123,-358.172896,-14472.44654,1760.23614,-2203.975625,1292.451754,5526.799914,60.18,65.13000407,59.48628409,66.02999593,0,-0.049297781,-0.033318879,0.049297781
201,10,0.9,1,9.375,3131.275377,-8043.279811,-558.9369518,261.5001238,90.27880954,-1114.168094,-2436,-13296,1388,-2018,1375,5752,60.18063444,65.11232629,59.44244068,66.05,0.000634444,-0.017677778,-0.043843415,0.020004071
201,10,0.9,2,10.15625,3173.732242,-8044.417609,-293.7128461,261.8733746,51.19449737,-848.1987099,-5240.827104,-14797,1619.216696,-2103,1925.938819,5846.918836,60.18695384,65.1354974,59.40178243,66.05,0.006319392,0.023171105,-0.04065825,0
201,10,0.9,2,10.9375,3248,-8046,12,262,13,-571,-7096,-16298,2040,-2188,2486,5888,60.19803156,65.1761157,59.42502058,66.11255144,0.011077719,0.040618304,0.023238149,0.06255144
201,10,0.9,2,11.71875,3542.283052,-8080.118272,727.1753305,231.5774648,-28.07863947,-256.9514291,-6359.472,-15273.52235,2534.533257,-2101.928519,2616.720133,5531.8,60.21136322,65.22499847,59.46,66.2,0.013331664,0.048882767,0.034979424,0.08744856
201,10,0.9,2,12.5,3788,-8134,1282,198,-74,35,-4603.136,-12811.20706,3165.519914,-1885.065558,2718.835149,4682.4,60.22444444,65.27296296,59.46,66.2,0.013081225,0.047964493,0,0
201,10,0.9,2,13.28125,3395.785844,-8183.337349,963,193.8838028,-133.4098361,259.9028013,-2506.864,-9827.730591,3791.439943,-1599.438338,2792.0901,3668.6,60.23477085,65.31082645,59.46,66.21083579,0.010326405,0.037863483,0,0.010835794
201,10,0.9,2,14.0625,2846,-8212,644,191,-170,432,-750.528,-7239.769414,4270.773314,-1307.074078,2836.230033,2819.2,60.23983805,65.32940618,59.46,66.30992976,0.005067201,0.018579737,0,0.09909397
201,10,0.9,2,14.84375,2605.154868,-8047.111111,788.6666667,187.496467,-126.1851852,551.6103559,-14,-5964,4462,-1070,2851,2463,60.24,65.33,59.46,66.4560292,0.00016195,0.000593817,0,0.14609944
201,10,0.9,2,15.625,2421.960877,-7740.888889,1057.333333,183.6674254,-44.81481481,647.05324,-1219,-5782.116175,1756.854174,-914.7853292,1997.537755,2567,60.24,65.32850397,59.45959699,66.57948265,0,-0.001496031,-0.000403012,0.123453448
201,10,0.9,2,16.40625,2160,-7576,1202,178,-1,726,-2424,-5580,-1096,-732,772,2671,60.24,65.22286587,59.42601262,66.66094173,0,-0.105638103,-0.033584368,0.081459074
201,10,0.9,2,17.1875,1465.392667,-7745,1136.544554,160.2272727,-36.5,804.3139535,-2158.127958,-3260.859558,-1325.854174,-312.1983708,6.462245213,2357.409763,60.2315978,65.18,59.38334215,66.77841922,-0.008402198,-0.042865866,-0.042670466,0.117477496
201,10,0.9,2,17.96875,894,-7914,1026,146,-72,846,-1634,-952,-1408,144,-387,1748,60.18494606,65.18,59.34340729,66.96899014,-0.04665174,0,-0.039934867,0.190570917
201,10,0.9,2,18.75,834,-7824,934,165,-33,802,-843.048853,-688.4955894,-1006.364116,386.5514533,-329.6639004,980.5533409,60.18,65.15152832,59.3644043,67.12372713,-0.004946061,-0.02847168,0.02099701,0.154736989
201,10,0.9,2,19.53125,936,-7799.264045,835.8642507,165.772293,-33,730.2939483,-142,-592,-228,640,-219,100,60.17942308,65.11,59.4,67.25197368,-0.000576918,-0.04152832,0.035595703,0.128246557
201,10,0.9,2,20.3125,1038,-7790,736,166,-33,641,92,-1222,740,1118,-83,-713,60.13782473,65.11,59.4,67.37532895,-0.041598352,0,0,0.123355263
201,10,0.9,2,21.09375,770,-8178,638,124,-80,541,-757.321996,-1958.50011,183.7427556,1453.268607,-68.58537616,-1320.778854,60.11253705,65.1059424,59.40841621,67.4,-0.025287676,-0.004057597,0.008416208,0.024671053
201,10,0.9,2,21.875,740,-7816,746,97,-83,412,-1638,-2640,-658,1712,-64,-1840,60.10169129,65.07597629,59.4495311,67.4,-0.010845766,-0.029966113,0.04111489,0
201,10,0.9,2,22.65625,436,-8408,516,78,-83,247,-1674,-3110,-1156,1898,-143,-2302,60.0945962,65.02241931,59.47888583,67.38397809,-0.007095093,-0.053556975,0.029354728,-0.016021914
201,10,0.9,2,23.4375,297.257059,-8406.416524,682.962963,49.41197626,-85.20875421,90.30876822,-1448.450245,-3607.682768,-1071.939353,2194.37344,-306.0292349,-2777.51058,60.08922439,64.95192392,59.5024428,67.31711229,-0.00537181,-0.0704954,0.023556978,-0.066865795
201,10,0.9,2,24.21875,200.4063073,-8401.721937,993.037037,12.7753817,-90.97306397,-62.35042872,-1090,-3890,-952,2517,-503,-3233,60.08354847,64.87114253,59.52437017,67.22019978,-0.005675919,-0.080781388,0.021927363,-0.096912507
201,10,0.9,2,25,164,-8394,1160,-29,-99,-216,-842,-3828,-894,2775,-671,-3628,60.07554105,64.78672759,59.54733145,67.11734206,-0.008007419,-0.08441494,0.022961279,-0.102857726
201,10,0.9,2,25.78125,264.5925926,-8123.907692,1155.662603,-91.31474698,-121.5454545,-386.09786,-975,-4087.599278,-944.3898164,2910.651962,-756.0119879,-3981.737273,60.06317474,64.70533153,59.57399017,67.03264061,-0.012366309,-0.081396056,0.026658724,-0.084701452
201,10,0.9,2,26.5625,451.4074074,-7631.953846,1140.658539,-161.6018179,-154.2727273,-557.2053456,-1108,-4598,-1028,3012,-797,-4313,60.02669213,64.6157307,59.60907718,66.96826882,-0.03648261,-0.089600831,0.035087006,-0.064371786
201,10,0.9,2,27.34375,552,-7368,1112,-195,-171,-688,-1106,-5260,-1094,3102,-802,-4625,60,64.54009748,59.64694342,66.94274348,-0.026692129,-0.075633218,0.037866246,-0.025525336
201,10,0.9,2,28.125,284,-8406,686,-193,-160,-764,-796,-6038,-1086,3236,-826,-5011,60,64.50538219,59.67973313,66.99925926,0,-0.034715291,0.032789705,0.056515775
201,10,0.9,2,28.90625,382.115869,-8199,1009,-210.2709924,-155.0914634,-871.7141189,-899.6759029,-6169.493083,-1111.473908,3352.033899,-864.8998184,-5264.804316,59.9934375,64.44591755,59.71451285,67.02,-0.0065625,-0.059464638,0.034779718,0.020740741
201,10,0.9,2,29.6875,572,-7992,1332,-243,-153,-994,-1151.79625,-6244.302097,-1168.947817,3456.581171,-908.3943537,-5470.137213,59.94832031,64.34482879,59.75245264,67.02,-0.045117187,-0.101088763,0.037939791,0
201,10,0.9,2,30.46875,788.8966484,-8094.482993,1026.933333,-291.2290076,-156.515625,-1129.436826,-1464,-6268,-1230,3537,-929,-5682,59.9025,64.34,59.79022505,66.9890411,-0.045820313,-0.00482879,0.037772408,-0.030958904
201,10,0.9,2,31.25,1078,-8222,628,-324,-162,-1239,-1904,-6152,-1288,3588,-909,-5923,59.88,64.33732139,59.82722709,66.93028248,-0.0225,-0.002678608,0.037002045,-0.058758619
201,10,0.9,2,32.03125,1625.987483,-8266.517007,465.8666667,-318.5,-164.8188578,-1301.721068,-1965.256463,-6241.837032,-1274.277778,3627.164063,-850.397066,-6106.47183,59.88,64.28460411,59.86246512,66.8799115,0,-0.052717281,0.035238028,-0.050370976
201,10,0.9,2,32.8125,2010,-8286,372,-313,-169,-1331,-2012,-6412,-1236,3660,-761,-6266,59.86748219,64.27,59.90131081,66.87,-0.01251781,-0.014604112,0.038845688,-0.009911501
201,10,0.9,2,33.59375,1975.759717,-7857,327.2,-376.0681818,-232.6857485,-1288.523352,-2126,-6610,-1066,3687,-649,-6412,59.82229595,64.27,59.9384368,66.87,-0.045186241,0,0.037125992,0
201,10,0.9,2,34.375,1896,-7428,308,-463,-307,-1224,-2332.563137,-6877.172045,-824.8373494,3697.631443,-447.5964742,-6620.772646,59.82,64.27,59.94,66.90191533,-0.00229595,0,0.0015632,0.031915327
201,10,0.9,2,35.15625,1647.240283,-8002.827938,337.7851459,-499.0558591,-322.8465994,-1183.186039,-2486,-7200,-674,3702,-312,-6793,59.81932617,64.27,59.94038086,66.9394873,-0.000673828,0,0.000380859,0.037571978
201,10,0.9,2,35.9375,1444,-8746,422,-533,-342,-1149,-2505.582872,-7610.520401,-750.7723555,3700.840456,-334.1396097,-6876.47697,59.77391602,64.27,59.97426758,66.897264,-0.045410156,0,0.033886719,-0.042223307
201,10,0.9,2,36.71875,1498,-8988,822,-587,-498,-1122,-2515.42654,-8073.574282,-928.4335999,3697.236467,-396.7236639,-6937.405152,59.76,64.28623535,60.03447337,66.84041667,-0.013916016,0.016235352,0.060205791,-0.056847331
201,10,0.9,2,37.5,2222,-9012,1570,-568,-785,-1149,-2532,-8466,-1128,3691,-494,-6961,59.76,64.33921387,60.11471117,66.790625,0,0.052978516,0.080237797,-0.049791667
201,10,0.9,2,38.28125,605,-10608.67082,2178.651452,-581.4082453,-624.1205375,-1250.056094,-2580,-8734,-1346,3658,-785,-6848,59.72735599,64.34,60.15169411,66.88547364,-0.032644006,0.000786133,0.03698294,0.094848641
201,10,0.9,2,39.0625,-1012,-12184,2494,-621,-408,-1367,-2740.637892,-9150.372986,-1367.289809,3589.602678,-1250.846649,-6624.771879,59.7,64.34038698,60.1919194,67.04675437,-0.027355994,0.000386982,0.040225292,0.161280727
201,10,0.9,2,39.84375,238,-11066,1166,-860,-325,-1424,-3040,-9538,-1374,3488,-1761,-6319,59.7,64.35230271,60.27984938,67.18068333,0,0.011915728,0.087929982,0.13392896
201,10,0.9,2,40.625,1290,-10322,1398,-892,-407,-1478,-3653.863222,-9791.279188,-1321,3346.785432,-2231.498056,-5958.090794,59.7,64.37587677,60.3,67.29435324,0,0.023574057,0.020150621,0.113669914
201,10,0.9,2,41.40625,334,-9234,854,-1063,-628,-1609,-4530,-9916,-1268,3162,-2573,-5530,59.7,64.40432319,60.3,67.38687315,0,0.028446428,0,0.09251991
201,10,0.9,2,42.1875,370.2962963,-9640.518519,719.3990904,-1075.645787,-609.5925926,-1796.59855,-5650.262827,-9846.144286,-1391.117647,2934.295852,-2732.843386,-5038.824781,59.6943216,64.44452099,60.36,67.44690274,-0.005678395,0.040197791,0.06,0.06002959
201,10,0.9,2,42.96875,437.7037037,-10395.48148,643.2351257,-1081.365377,-575.4074074,-2027.753122,-6656,-9702,-1636,2652,-2813,-4477,59.67532083,64.50273872,60.42,67.46699219,-0.019000772,0.058217738,0.06,0.020089445
201,10,0.9,2,43.75,474,-10802,572,-1088,-557,-2280,-7119.954208,-9421.855714,-2056.882353,2286.347898,-2828.312482,-3864.816857,59.65012536,64.54521385,60.42,67.4109375,-0.025195473,0.042475123,0,-0.056054687
201,10,0.9,2,44.53125,36,-10584,490,-1099,-670,-2564,-7586,-9216,-2356,1874,-2842,-3123,59.6178727,64.53185185,60.43566253,67.40577041,-0.032252656,-0.013361994,0.015662528,-0.005167095
201,10,0.9,2,45.3125,-412.4937179,-11588,460.051963,-1148.64779,-528,-2899.295033,-8544,-9490,-2274,1462,-2883,-2050,59.58157082,64.48240055,60.50662732,67.43191533,-0.036301885,-0.049451303,0.070964787,0.026144922
201,10,0.9,2,46.09375,-664,-12592,448,-1190,-386,-3211,-9614,-9648,-1970,1201,-2868,-1269,59.58,64.48,60.58339304,67.46019744,-0.001570818,-0.002400549,0.076765724,0.028282109
201,10,0.9,2,46.875,-650.4829171,-12531.888,508.1583082,-1189.385194,-391.4768047,-3442.187332,-10034.83003,-10241.81478,-1707.67266,837.1380665,-2649.085891,-422.2223125,59.57742188,64.48,60.60742188,67.47,-0.002578125,0,0.024028836,0.009802565
201,10,0.9,2,47.65625,-611.9287514,-12388.544,655.2749245,-1187.395582,-408.230414,-3640.062533,-10302.38248,-11720.42957,-1479.502997,363.9564884,-2268.431834,463.3897228,59.529375,64.48,60.559375,67.47,-0.048046875,0,-0.048046875,0
201,10,0.9,2,48.4375,-551.3331271,-12217.456,839.3123867,-1183.813373,-436.745621,-3820.444068,-10794,-14388,-1382,-262,-2066,1360,59.52,64.49230271,60.56714635,67.40099502,-0.009375,0.012302709,0.007771346,-0.069004978
201,10,0.9,2,49.21875,-471.6916685,-12074.112,1010.233233,-1178.420776,-477.5072187,-3999.150402,-12666,-31748,-3514,-1341,-2553,2265,59.52,64.54432319,60.60940159,67.18380532,0,0.052020485,0.042255241,-0.217189705
201,10,0.9,3,50,-376,-12014,1118,-1171,-531,-4192,-12486,-2320,654,-252,-2204,4369,59.52,64.62447777,60.49728027,67.06895869,0,0.080154577,-0.112121314,-0.114846631
201,10,0.9,3,50.78125,-189.4348786,-12221,1174.877644,-1049.122097,-849.5049927,-4388.442785,-10713.06371,-7372,1182.172837,-539.9380701,-1565.496493,4096.464903,59.51555556,64.71754704,60.42,67.00919336,-0.004444444,0.093069273,-0.077280273,-0.059765322
201,10,0.9,3,51.5625,122,-12428,1202,-931,-1138,-4617,-7068,-12424,1354,-1077,-627,3599,59.47131687,64.81186421,60.42,66.98723845,-0.044238683,0.09431717,0,-0.021954919
201,10,0.9,3,52.34375,597.9296421,-12270,671,-930.2510373,-1077.5,-4952.224415,1979.975382,-9501,731.7954931,-1801.258124,1273.97844,2945.535097,59.46,64.81846436,60.42,66.97204981,-0.011316872,0.006600141,0,-0.015188634
201,10,0.9,3,53.125,1328,-12112,140,-930,-1017,-5353,9002,-6578,-714,-2335,2643,2517,59.46,64.76463135,60.42,66.94422455,0,-0.053833008,0,-0.027825259
201,10,0.9,3,53.90625,2636,-14128,1756,-1116,-1232,-5784,7880,-8298,-3848,-2406,1888,2616,59.46,64.72355229,60.42,66.80191786,0,-0.041079053,0,-0.142306689
201,10,0.9,3,54.6875,3798,-16104,3038,-1400,-1185,-5828,4273.746705,-8233.278689,-3812.785779,-1942.5,785.2761189,2669.672587,59.46,64.66686873,60.42,66.72577041,0,-0.056683563,0,-0.076147458
201,10,0.9,3,55.46875,3624.62946,-15840.72671,3271.306495,-1485.078152,-1331.687103,-5693.709746,-312,-8058,-3710,-1479,-33,2738,59.46,64.5655051,60.42,66.78019744,0,-0.101363628,0,0.05442703
201,10,0.9,3,56.25,3155.258921,-15121.00898,3397.368319,-1538.48352,-1674.818651,-5343.863936,-4451.890889,-6597.721311,-412.2142214,-1529.410839,-253.3602512,3194.710794,59.46,64.63001628,60.42,66.78422959,0,0.06451118,0,0.00403216
201,10,0.9,3,57.03125,2466,-14050,3494,-1557,-2069,-4858,-6784,-5248,2818,-1637,-341,3598,59.46,64.82720741,60.42,66.75808467,0,0.197191126,0,-0.026144922
201,10,0.9,3,57.8125,61.54185717,-10365.21417,3606.963696,-1474.7206,-2642.310342,-3648.332542,-6503.908774,-6843,1259.973179,-1872.589161,235.5,3195.334513,59.484488,64.79191533,60.42,66.72980256,0.024488002,-0.035292082,0,-0.028282109
201,10,0.9,3,58.59375,-1956,-6630,3666,-1304,-3030,-2503,-5674,-8438,-1166,-2051,812,2732,59.52814801,64.76,60.42,66.72300781,0.04366001,-0.031915327,0,-0.006794752
201,10,0.9,3,59.375,-1444.75,-5617.102976,2961.625,-1007.921218,-2423.106827,-2213.663247,-558,-7470,-2740,-1671,610,2655,59.57335311,64.76,60.42,66.7790625,0.045205096,0,0,0.056054688
201,10,0.9,3,60.15625,-320,-4999.401476,1412,-573.9223157,-1062.784871,-2057.376016,34,-8680,-3098,-1213,223,2797,59.58,64.77154081,60.42,66.79,0.006646892,0.01154081,0,0.0109375
201,10,0.9,4,60.9375,804.75,-4470.999238,-137.625,-152.7122558,360.4295199,-1905.650777,-977.6296296,-8523.925926,-1900.222222,-1038.006003,254.3703704,2613.772813,59.58,64.82383065,60.42,66.79,0,0.052289843,0,0
201,10,0.9,4,61.71875,1316,-3726,-842,105,1156,-1630,-2856.37037,-8234.074074,324.2222222,-925.6846485,312.6296296,2226.545625,59.58,64.88039487,60.42,66.74919067,0,0.056564217,0,-0.040809328
201,10,0.9,4,62.5,520,-2516,506,193,1323,-876,-3868,-8078,1522,-813,344,1879,59.58257813,64.9,60.42,66.72644531,0.002578125,0.019605129,0,-0.02274536
201,10,0.9,4,63.28125,-30,-2860,2280,443,1191,17,-3834.570312,-8081.867188,1454.195312,-674.3276152,335.1707579,1637.70458,59.630625,64.9,60.42,66.8465625,0.048046875,0,0,0.120117188
201,10,0.9,4,64.0625,494.8363582,-3760.655861,2069.18942,644.7472228,1011.981113,859.7060248,-3746.4375,-8092.0625,1275.4375,-528.7531625,310.4068843,1407.489331,59.64,64.9060371,60.42,66.87,0.009375,0.006037095,0,0.0234375
201,10,0.9,4,64.84375,1088,-4432,1660,820,865,1648,-3621.835937,-8106.476563,1022.710937,-380.3058738,272.294158,1189.427799,59.64,64.93921952,60.42,66.87,0,0.033182424,0,0
201,10,0.9,4,65.625,1173.926803,-4378.458162,1048.583239,966.9450226,789.9872179,2361.416121,-3479,-8123,733,-233.0149807,223.4183581,984.5935297,59.64,64.99376485,60.42,66.79545538,0,0.054545332,0,-0.074544625
201,10,0.9,4,66.40625,1217.63945,-4234.249657,312.7827084,1100.322794,734.60472,3031.73006,-3336.164062,-8139.523438,443.2890625,-90.90971499,166.3652634,794.0600692,59.64,65.06731704,60.42,66.69970109,0,0.07355219,0,-0.095754288
201,10,0.9,4,67.1875,1308,-4024,-90,1255,713,3698,-3211.5625,-8153.9375,190.5625,41.98069152,103.7206528,618.9009635,59.64,65.21397931,60.42,66.64440217,0,0.146662266,0,-0.055298913
201,10,0.9,4,67.96875,1758,-3534,-142,1465,775,4371,-3123.429688,-8164.132813,11.8046875,161.6270071,38.0703054,460.1897584,59.61983539,65.38097789,60.40393512,66.69041152,-0.020164609,0.166998578,-0.016064877,0.046009349
201,10,0.9,4,68.75,1848.105159,-3626.970502,-433.7517518,1616.693337,738.4857793,4875.4931,-3090,-8168,-56,264,-28,319,59.58053498,65.53224314,60.36273317,66.78866255,-0.039300412,0.151265256,-0.041201957,0.098251029
201,10,0.9,4,69.53125,1895.779075,-3880.829894,-891.6536537,1748.033499,637.9715586,5313.426349,-3522,-7832,236,342,-114,208,59.58,65.58282887,60.34157255,66.76900237,-0.000534979,0.050585727,-0.021160619,-0.019660177
201,10,0.9,4,70.3125,1948,-4258,-1130,1911,487,5785,-3824,-7612,230,364,-113,14,59.58,65.626625,60.32551924,66.71411414,0,0.043796131,-0.016053312,-0.054888232
201,10,0.9,4,71.09375,2024,-5200,-1108,2165,94,6350,-3338,-7762,700,355,-119,-136,59.58,65.68475,60.30708354,66.65443894,0,0.058125,-0.018435695,-0.059675201
201,10,0.9,4,71.875,2076,-5826,-836,2318,-181,6692,-2658,-8382,1318,347,-112,-386,59.58,65.69,60.27587855,66.61368146,0,0.00525,-0.031204994,-0.040757479
201,10,0.9,4,72.65625,2034,-6254,-272,2449,-538,7191,-3136,-7892,1614,326,-118,-454,59.58,65.69,60.24,66.57,0,0,-0.035878547,-0.043681463
201,10,0.9,4,73.4375,1904.36573,-6291.746091,-346.1422287,2496.265351,-782.5284431,7572.125404,-2989.317784,-7911.166181,1582.298642,310.7772537,-114.2332362,-474.5484228,59.58,65.69,60.2190832,66.44654567,0,0,-0.020916803,-0.123454333
201,10,0.9,4,74.21875,1722,-6324,-512,2536,-902,7859,-2611.03207,-7960.594752,1494.315202,296.0012877,-104.5189504,-491.5168003,59.58,65.69,60.20266605,66.26593489,0,0,-0.016417151,-0.180610777
201,10,0.9,4,75,1504.889429,-6539.673068,-953.8952971,2618.379768,-900.7295304,8080.738689,-2093.784257,-8028.180758,1360.73063,282.3628689,-91.2361516,-505.057761,59.58,65.69,60.18694526,66.13475539,0,0,-0.015720782,-0.131179498
201,10,0.9,4,75.78125,1277.333604,-6954.148996,-1582.392093,2714.689884,-897.2368385,8261.369344,-1530.215743,-8101.819242,1192.225874,270.5527639,-76.7638484,-515.323933,59.58,65.69,60.16860401,66.12,0,0,-0.018341253,-0.014755391
201,10,0.9,4,76.5625,1172,-7400,-1902,2761,-892,8336,-1012.96793,-8169.405248,999.4818838,261.2617396,-63.48104956,-522.4679446,59.58,65.69,60.14861099,66.12,0,0,-0.01999302,0
201,10,0.9,4,77.34375,1335.417577,-7897.460149,-1833.242477,2753.411179,-754.0842674,8298.953248,-634.6822157,-8218.833819,793.1796094,255.1805627,-53.76676385,-526.6424242,59.59745852,65.67330959,60.12970313,66.12,0.017458523,-0.016690413,-0.018907857,0
201,10,0.9,4,78.125,1761.114023,-8515.611213,-1660.064815,2732.026885,-416.66906,8196.828172,-488,-8238,584,253,-50,-528,59.63803759,65.63952168,60.11452141,66.12,0.040579068,-0.03378791,-0.015181728,0
201,10,0.9,4,78.90625,2352.254914,-9160.296961,-1432.109375,2698.920369,23.5962963,8043.147541,-756,-8000,310,260,-96,-401,59.68404246,65.61306127,60.10356876,66.12,0.046004864,-0.026460411,-0.010952649,0
201,10,0.9,4,79.6875,3012.005823,-9737.361162,-1199.018519,2656.164882,470.0624756,7851.434123,-727.3061224,-7905.154423,379.6851312,247.9422125,-86.96480194,-287.2386464,59.72242301,65.64938248,60.09452653,66.12,0.03838055,0.036321214,-0.009042222,0
201,10,0.9,4,80.46875,3643.532327,-10152.64759,-1010.434606,2605.833675,826.0801521,7635.210686,-653.3061224,-7824.111302,559.3994169,215.4944497,-63.27042825,-182.8867146,59.76,65.76,60.08488306,66.12,0.037576995,0.11061752,-0.009643471,0
201,10,0.9,4,81.25,4150,-10312,-916,2550,995,7408,-552.122449,-7757.158279,805.1311953,168.2451115,-30.03370962,-83.02225084,59.79521559,65.81390865,60.07212667,66.12,0.035215593,0.053908649,-0.012756395,0
201,10,0.9,4,82.03125,4542.242495,-10282.5142,-889.9701554,2466.276301,1035.264693,7134.794239,-441.877551,-7704.582995,1072.868805,111.7825976,7.628523231,17.27669874,59.83045586,65.81998846,60.05056084,66.12,0.03524027,0.00607981,-0.021565829,0
201,10,0.9,4,82.8125,4903.184718,-10202.26765,-871.521164,2337.453709,1069.396585,6780.00386,-340.6938776,-7666.673092,1318.600583,51.69530788,44.59943959,122.9320879,59.86622299,65.7155229,60.00463664,66.12,0.035767125,-0.104465554,-0.045924204,0
201,10,0.9,4,83.59375,5244.129125,-10083.57666,-857.6763393,2173.373502,1096.865869,6356.279054,-266.6938776,-7643.716213,1498.314869,-6.428357917,75.76220875,238.8658704,59.93988281,65.64336648,60.0244043,66.07776928,0.073659825,-0.072156428,0.019767661,-0.042230721
201,10,0.9,4,84.375,5576.378171,-9938.757522,-845.4589947,1983.876962,1117.142737,5876.270014,-238,-7636,1568,-57,96,370,60,65.61133745,60.05905152,65.97118813,0.060117187,-0.032029029,0.034647222,-0.106581151
201,10,0.9,4,85.15625,5911.234311,-9780.126536,-831.8924438,1778.805368,1129.697383,5352.626932,-281.9924576,-7738.666667,1441.399527,-99.03016942,106.0278376,541.1562396,60,65.70958848,59.98638167,65.87336025,0,0.098251029,-0.072669849,-0.097827875
201,10,0.9,4,85.9375,6260,-9620,-814,1568,1134,4798,-388.6515819,-7929.333333,1205.910166,-140.8828964,113.5647693,737.1736207,60.00279489,65.76,59.93354618,65.82200683,0.002794891,0.050411523,-0.05283549,-0.051353426
201,10,0.9,4,86.71875,6692.315972,-9379.213832,-784.4232804,1319.592401,1040.738947,4128.87031,-520,-8032,1078,-191,124,903,60.04119543,65.76,59.91794798,65.79862258,0.038400534,0,-0.015598205,-0.023384245
201,10,0.9,4,87.5,7128.973312,-9096.273583,-751.5449735,1029.668244,848.8112265,3340.119815,-720.2562929,-8014.38484,1076.224303,-259.6645024,141.763664,1038.757438,60.0936205,65.76,59.90821002,65.78048209,0.052425077,0,-0.009737958,-0.018140487
201,10,0.9,4,88.28125,7358,-8960,-736,750,690,2562,-1026.071129,-7968.956268,1074.805863,-346.8933847,167.0015727,1175.866056,60.12,65.76,59.90010749,65.76788391,0.026379497,0,-0.008102527,-0.01259818
201,10,0.9,4,89.0625,7396.171468,-9170.08,-876.192,487.0990203,590.4638339,1870.160675,-1388.115267,-7906.83965,1073.714036,-445.7294042,198.6764465,1306.220802,60.12,65.71414536,59.88941558,65.76112659,0,-0.045854637,-0.010691913,-0.006757325
201,10,0.9,4,89.84375,7412.489577,-9671.04,-1210.496,221.7964159,495.3018131,1219.4668,-1757.059464,-7839.16035,1072.91818,-549.2153183,235.7510058,1421.716622,60.12,65.61001571,59.87055168,65.76164388,0,-0.104129648,-0.0188639,0.00051729
201,10,0.9,4,90.625,7423.321952,-10268.96,-1609.504,-32.65569863,414.7078754,558.9925874,-2083.57448,-7777.043732,1072.387651,-650.393884,277.1879709,1514.248463,60.12,65.49776245,59.83232605,65.77831631,0,-0.112253264,-0.038225625,0.016672436
201,10,0.9,4,91.40625,7445.036218,-10769.92,-1943.808,-263.0052088,358.8759585,-162.18775,-2318.331073,-7731.61516,1072.091806,-742.3078589,321.9500621,1575.711274,60.12,65.39781355,59.78355758,65.80847544,0,-0.099948899,-0.048768471,0.030159128
201,10,0.9,4,92.1875,7494,-10980,-2084,-456,338,-995,-2412,-7714,1072,-818,369,1598,60.12,65.33,59.73714774,65.84654617,0,-0.067813551,-0.046409845,0.038070724
201,10,0.9,4,92.96875,9026,-5950,510,-599,721,-2091,-2417.670504,-7795.444402,1079.719308,-878.4774838,428.3053089,1572.5,60.16101563,65.33,59.70599799,65.88695339,0.041015625,0,-0.031149747,0.040407222
201,10,0.9,4,93.75,8251.128015,-6254.952571,1998.257068,-854.933313,884.9787775,-3216.338831,-2420,-7978,1098,-928,497,1547,60.170625,65.33,59.7,65.92657569,0.009609375,0,-0.005997989,0.039622298
201,10,0.9,4,94.53125,6954,-6786,2684,-1027,954,-3848,-2198.979592,-8473.224614,1203.367166,-965.6497253,573.4255689,1553.350694,60.12257813,65.33,59.7,65.97241642,-0.048046875,0,0,0.045840736
201,10,0.9,4,95.3125,5759.014774,-7326.983598,2397.231908,-1022.333333,936.192788,-3829.214767,-1628.979592,-9425.00244,1441.116528,-994.7238205,663.3189591,1572.005714,60.12793179,65.33,59.69425744,66.00923545,0.005353666,0,-0.005742561,0.036819031
201,10,0.9,4,96.09375,4381.841132,-7982.316783,1659.364327,-1010.666667,887.4835883,-3780.820588,-849.5918367,-10639.15663,1757.088194,-1019.46629,757.4857926,1602.369469,60.15429269,65.33,59.67421285,66.0464874,0.026360902,0,-0.020044591,0.037251949
201,10,0.9,4,96.875,3000.615955,-8657.142286,654.0523011,-995.5,814.9410553,-3714.759743,-0.408163265,-11921.51033,2097.122268,-1044.121139,846.7316914,1643.846366,60.18879526,65.33,59.64554929,66.08026985,0.034502567,0,-0.028663559,0.033782448
201,10,0.9,4,97.65625,1793.476122,-9256.602836,-435.0491246,-980.3333333,725.6338433,-3642.97451,778.9795918,-13077.88669,2407.058856,-1072.93237,921.8622775,1695.840815,60.22058394,65.33,59.61434928,66.10602305,0.031788679,0,-0.031200005,0.025753204
201,10,0.9,4,98.4375,938.5585103,-9685.841164,-1424.284906,-968.6666667,626.6306068,-3577.407169,1348.979592,-13914.10886,2632.738065,-1110.143989,973.6831731,1757.757224,60.23880318,65.33,59.58669536,66.11918727,0.018219237,0,-0.027653928,0.013164216
201,10,0.9,4,99.21875,614,-9850,-2130,-964,525,-3530,1570,-14236,2720,-1160,993,1829,60.24,65.33,59.56531572,66.11141663,0.001196825,0,-0.021379634,-0.007770643
201,10,0.9,4,100,706.4337492,-9442.944,-2645.191297,-977.832,375.8636328,-3501.666833,1385.418103,-13987.5625,2383.125,-1256.127929,933.3125,2003.456698,60.24,65.32933836,59.54481679,66.08172302,0,-0.000661644,-0.020498936,-0.029693604
201,10,0.9,1,0,940.6612476,-8472.272,-3146.690209,-1010.816,165.6965869,-3481.056089,925.1149425,-13441,1642,-1408.581601,802,2312.927099,60.24,65.28125639,59.52707506,66.0545929,0,-0.048081963,-0.017741729,-0.027130127
201,10,0.9,1,0.787401575,1252.071871,-7313.728,-3576.593473,-1050.184,-51.4022754,-3461.711927,329.2543103,-12894.4375,900.875,-1586.244473,670.6875,2663.68395,60.24,65.24963323,59.51363201,66.05217169,0,-0.031623159,-0.013443043,-0.002421208
201,10,0.9,1,1.57480315,1576.054997,-6343.056,-3876.997824,-1083.168,-221.3340918,-3437.17851,-262,-12646,564,-1758,611,2962,60.24,65.23056932,59.50089637,66.06817128,0,-0.01906391,-0.01273564,0.015999589
201,10,0.9,1,2.362204724,1848,-5936,-3990,-1097,-290,-3401,-880,-12996,1658,-1923,657,3181,60.24,65.21402502,59.48874731,66.09665936,0,-0.016544302,-0.012149065,0.02848808
201,10,0.9,1,3.149606299,2091.352689,-6037.496454,-3802.379053,-1043.676268,-273.9912536,-3313.164827,-552,-14076,1638,-2066,611,3258,60.24,65.20035246,59.47788818,66.13397217,0,-0.013672562,-0.010859132,0.037312817
201,10,0.9,1,3.937007874,2358.021181,-6300.525596,-3314.664869,-905.4583084,-232.7055394,-3150.774802,-138,-12678,1512,-1994,460,3683,60.24,65.18990377,59.46902233,66.17644597,0,-0.010448688,-0.008865843,0.042473798
201,10,0.9,1,4.724409449,2626.088313,-6662.897093,-2639.580438,-714.9759756,-176.2536443,-2933.044157,-946,-12228,1314,-1981,513,3902,60.24,65.18303109,59.46285314,66.220417,0,-0.006872683,-0.006169197,0.043971025
201,10,0.9,1,5.511811024,2873.636923,-7062.420614,-1889.848747,-504.8591239,-114.7463557,-2679.187123,-454.962963,-12699.85185,1468,-1963.651286,546.3391424,4118.203043,60.24,65.18008654,59.46008394,66.26222149,0,-0.002944544,-0.002769193,0.041804497
201,10,0.9,1,6.299212598,3078.749849,-7436.905827,-1178.192785,-307.7376078,-58.29446064,-2408.417931,456.962963,-13576.14815,1754,-1940.285761,573.539303,4334.535797,60.24,65.18,59.46,66.30256204,0,-8.65E-05,-8.39E-05,0.040340544
201,10,0.9,1,7.086614173,3219.509928,-7724.162399,-617.3355398,-156.2412817,-17.00874636,-2139.950813,948,-14048,1908,-1905,613,4560,60.24,65.18,59.46,66.34710181,0,0,0,0.044539774
201,10,0.9,1,7.874015748,3274,-7862,-320,-83,-1,-1893,312.608553,-13900,1459,-1781.196578,691.4266613,4825.387779,60.24,65.18,59.46,66.39304115,0,0,0,0.045939335
201,10,0.9,1,8.661417323,3277.787781,-7897.28823,-206.2879427,-63.00430453,-3.36328125,-1647.241853,-898,-13752,1010,-1679,813,5053,60.23890944,65.18091188,59.46,66.43712829,-0.00109056,0.000911879,0,0.044087148
201,10,0.9,1,9.448818898,3281.055515,-7920.998354,-117.0234829,-48.41511333,-9.59375,-1377.439655,-2584.181744,-14095.125,1239.6875,-1780.25,1055.00984,5209.394658,60.22852224,65.19010562,59.46,66.47692033,-0.0103872,0.009193742,0,0.039792033
201,10,0.9,1,10.23622047,3283.807828,-7937.092536,-46.01311583,-37.61784506,-18.40234375,-1095.438025,-4798.217106,-14850,1745,-2003,1408.008746,5348.739696,60.21179904,65.20656866,59.46,66.51561194,-0.0167232,0.016463044,0,0.03869161
201,10,0.9,2,11.02362205,3286.049347,-7949.532937,12.93666345,-28.99791836,-28.5,-813.0815803,-6724.643915,-15604.875,2250.3125,-2225.75,1726.50328,5448.714886,60.19449984,65.22704113,59.46,66.55723599,-0.0172992,0.020472464,0,0.041624054
201,10,0.9,2,11.81102362,3287.784697,-7962.281721,66.0193598,-20.94075186,-38.59765625,-542.2149378,-7548,-15948,2480,-2327,1865,5487,60.18238464,65.24826313,59.46,66.60582536,-0.0121152,0.021222002,0,0.048589366
201,10,0.9,2,12.5984252,3289.018505,-7979.301051,119.4284781,-11.83176421,-47.40625,-294.6827152,-7367.729527,-15630.77986,2476.474051,-2284.505308,1807.238918,5403.498213,60.18,65.26852527,59.46,66.66604542,-0.00238464,0.020262138,0,0.060220061
201,10,0.9,2,13.38582677,3289.755397,-8004.553089,179.3575232,-0.056374039,-53.63671875,-82.32953015,-6873.439519,-14760.98272,2465.276832,-2164.485224,1648.861758,5165.97373,60.18,65.29565365,59.46,66.74525314,0,0.027128377,0,0.079207721
201,10,0.9,2,14.17322835,3290,-8042,252,16,-56,83,-6134.912096,-13461.40346,2445.479283,-1978.135736,1412.227648,4793.897874,60.18,65.32050783,59.46,66.84163392,0,0.024854181,0,0.096380776
201,10,0.9,2,14.96062992,2693.559952,-8186.216267,347.399731,49.18376494,-9.5,207.8224921,-5221.929376,-11854.83696,2416.152346,-1736.652835,1119.695718,4306.741964,60.18,65.32946912,59.46,66.95184037,0,0.008961295,0,0.110206451
201,10,0.9,2,15.7480315,1924,-8308,430,73,37,296,-4204.273479,-10064.07814,2376.366963,-1451.232508,793.6250939,3723.977321,60.18,65.2865306,59.46,67.09692912,0,-0.042938523,0,0.145088752
201,10,0.9,2,16.53543307,1610.944916,-8294.556927,484.6607787,71.48604976,31.89026063,359.4400664,-3151.726521,-8211.921863,2325.194075,-1133.070746,456.3749061,3065.075264,60.17858636,65.23861223,59.46,67.242231,-0.001413636,-0.047918371,0,0.14530188
201,10,0.9,2,17.32283465,1355.964191,-8258.529492,536.9848112,67.33080379,18.19615912,419.8177559,-2134.070624,-6421.163035,2261.704623,-793.3635355,130.3042825,2349.507115,60.16835922,65.19764347,59.46,67.3751563,-0.010227147,-0.040968756,0,0.132925304
201,10,0.9,2,18.11023622,1146.615192,-8206.37037,585.8789529,61.11416922,-1.62962963,475.9578898,-1221.087904,-4814.596544,2184.969548,-443.306867,-162.2276484,1596.744193,60.15066988,65.15784678,59.46,67.43121501,-0.01768934,-0.039796691,0,0.056058707
201,10,0.9,2,18.8976378,970.4552857,-8144.532236,630.2500592,53.41605316,-25.13443073,526.6852889,-482.5604808,-3515.01728,2094.059792,-94.09672894,-398.8617581,826.2578203,60.12840351,65.11773777,59.46,67.47781106,-0.022266364,-0.040109012,0,0.046596048
201,10,0.9,2,19.68503937,815.0418395,-8079.467764,669.0049857,44.81636274,-49.86556927,570.8247743,11.72952667,-2645.220135,1988.046295,243.0708897,-557.2389181,57.51931565,60.10444529,65.07583205,59.46,67.62692102,-0.023958219,-0.041905719,0,0.149109958
201,10,0.9,2,20.47244094,667.9322206,-8017.62963,701.0505876,35.8950051,-73.37037037,607.2011671,192,-2328,1866,557,-615,-690,60.08168039,65.03064524,59.46,67.76178123,-0.022764904,-0.045186813,0,0.134860212
201,10,0.9,2,21.25984252,516.6837963,-7965.470508,725.2937203,27.23188734,-93.19615912,634.6392883,-900,-3114,1334,881,-454,-1570,60.06299397,64.98069294,59.46,67.85624417,-0.018686419,-0.049952294,0,0.09446294
201,10,0.9,2,22.04724409,348.8539337,-7929.443073,740.6412393,19.4069166,-106.8902606,651.9639589,-1644,-3518,454,1071,-408,-2171,60.04896751,64.91903239,59.46,67.84872851,-0.01402646,-0.061660556,0,-0.007515659
201,10,0.9,2,22.83464567,152,-7916,746,13,-112,658,-1811.817259,-3694.994657,-241.0732183,1362.928401,-429.9179104,-2840.485518,60.03609311,64.8405283,59.46,67.80695854,-0.012874398,-0.078504089,0,-0.041769974
201,10,0.9,2,23.62204724,-76,-8136,628,8,-86,490,-1872,-3770,-672,1697,-474,-3447,60.02409205,64.75734837,59.46,67.74138127,-0.012001058,-0.083179925,0,-0.065577268
201,10,0.9,2,24.40944882,66,-7560,752,16,-82,347,-1750,-3631,-805.3496811,2036.891428,-550.9242301,-3882.043502,60.01280933,64.68209537,59.46,67.659442,-0.011282727,-0.075253,0,-0.081939271
201,10,0.9,2,25.19685039,562,-8372,604,-2,-72,166,-1628,-3492,-880,2329,-609,-4245,60.00208992,64.62737206,59.46,67.56858602,-0.010719404,-0.054723315,0,-0.090855981
201,10,0.9,2,25.98425197,563.4328837,-8364.357672,628.2831501,-25.42795318,-76.91536406,30.46179164,-1634.974937,-3571.676293,-931.3445948,2542.856341,-614.4326505,-4593.469422,59.99229332,64.59370582,59.50964555,67.43169655,-0.009796602,-0.033666242,0.049645555,-0.136889463
201,10,0.9,2,26.77165354,563.9963206,-8345.553015,686.6894504,-52.89750502,-89.58609219,-87.794457,-1654.474009,-3790.471963,-971.1461322,2745.203137,-617.8530275,-4941.237418,59.98397816,64.56266125,59.59038362,67.30516293,-0.008315162,-0.031044568,0.080738062,-0.126533622
201,10,0.9,2,27.55905512,564.2433156,-8321.769523,757.5541756,-81.95308027,-106.8991383,-194.2816015,-1684.358605,-4118.037198,-1002.564716,2933.988442,-619.8390835,-5282.19716,59.97638238,64.53480526,59.64201172,67.24304435,-0.007595779,-0.027855993,0.051628108,-0.062118579
201,10,0.9,2,28.34645669,564.7268737,-8299.190687,819.2126006,-110.1391037,-125.7414563,-294.5124973,-1722.490114,-4524.022186,-1028.760449,3107.16031,-620.9687704,-5610.241823,59.96870748,64.51138374,59.68959645,67.19619278,-0.007674898,-0.023421517,0.047584729,-0.046851572
201,10,0.9,2,29.13385827,566,-8284,850,-135,-143,-394,-1766.729926,-4978.077115,-1052.893437,3262.666796,-621.8200407,-5919.264579,59.96015496,64.4936426,59.72828314,67.15800238,-0.00855252,-0.017741142,0.038686684,-0.038190398
201,10,0.9,2,29.92125984,703.4630613,-8278.032731,854.7876799,-154.4411058,-163.3572437,-487.4278046,-1814.939431,-5449.852174,-1078.123782,3398.455953,-622.9708466,-6203.158602,59.94992632,64.48282773,59.75321711,67.12186732,-0.010228644,-0.010814866,0.024933972,-0.036135059
201,10,0.9,2,30.70866142,840,-8270,860,-175,-176,-582,-1864.980019,-5908.997548,-1107.611588,3512.475837,-624.9991403,-6455.817064,59.93712242,64.4801834,59.75770405,67.08126756,-0.012803898,-0.00264433,0.004486941,-0.040599758
201,10,0.9,2,31.49606299,621,-8058.09056,906.244898,-203.2925643,-172.5,-697.9692223,-1914.713079,-6325.163428,-1144.51696,3602.674501,-628.482874,-6671.133139,59.91828411,64.48593211,59.71251781,67.03795276,-0.018838308,0.005748712,-0.045186241,-0.043314804
201,10,0.9,2,32.28346457,402,-7832,948,-239,-169,-811,-1962,-6668,-1192,3667,-634,-6843,59.89345967,64.49768555,59.71108927,67.0037497,-0.024824444,0.01175344,-0.001428541,-0.034203058
201,10,0.9,2,33.07086614,405.785562,-7794.142169,943.7037037,-281.6208094,-184.4814815,-898.1104958,-2005.492683,-6940.065829,-1289.456311,3715.176234,-712.7436287,-6966.22796,59.86460074,64.51265082,59.78186891,66.97143332,-0.028858925,0.014965272,0.070779637,-0.032316387
201,10,0.9,2,33.85826772,418.8249096,-7764.137532,932.962963,-330.5930871,-223.1851852,-970.6664974,-2068,-7204,-1360,3738,-811,-7068,59.83365899,64.52803503,59.87759553,66.94721404,-0.03094175,0.015384206,0.095726621,-0.024219273
201,10,0.9,2,34.64566929,443.642035,-7741.553542,919,-385.916989,-273.5,-1037.600727,-2222,-7494,-1232,3729,-844,-7168,59.80258607,64.54104527,59.95193192,66.94,-0.031072919,0.013010244,0.074336395,-0.007214043
201,10,0.9,2,35.43307087,482.7609303,-7725.957655,905.037037,-447.5926711,-323.8148148,-1107.845906,-2426.143345,-7825.186858,-1233.451343,3699.895745,-954.4491008,-7148.800659,59.77333364,64.54888866,60.015489,66.94,-0.029252432,0.007843385,0.063557077,0
201,10,0.9,2,36.22047244,538.7055879,-7716.917323,894.2962963,-515.6202894,-362.5185185,-1190.334756,-2659.235737,-8193.950195,-1237.980666,3642.003836,-1164.415651,-7092.900156,59.746201,64.54653663,60.07896851,66.94,-0.027132638,-0.002352027,0.063479515,0
201,10,0.9,2,37.00787402,614,-7714,890,-590,-378,-1294,-2928.336221,-8578.306752,-1245.850913,3558.474861,-1437.527932,-7002.84477,59.71468837,64.52144128,60.13340682,66.94,-0.03151263,-0.025095348,0.054438311,0
201,10,0.9,2,37.79527559,1324,-8648,894,-687,-316,-1457,-3240.503843,-8956.27327,-1257.325027,3452.459404,-1737.414226,-6881.180782,59.68283294,64.47792466,60.16984029,66.94,-0.03185543,-0.043516626,0.036433463,0
201,10,0.9,2,38.58267717,1492,-8766,1240,-689,-383,-1415,-3602.79765,-9305.86649,-1272.665951,3327.108051,-2027.702814,-6730.454471,59.65648677,64.422951,60.18,66.9434375,-0.026346172,-0.054973656,0.010159712,0.0034375
201,10,0.9,2,39.37007874,1668,-8150,1514,-834,-472,-1437,-4022.276687,-9605.103153,-1292.136627,3185.571388,-2272.021978,-6553.212117,59.64150191,64.36348456,60.18,67.0075,-0.014984857,-0.059466439,0,0.0640625
201,10,0.9,2,40.15748031,1782,-8174,1198,-876,-483,-1517,-4506,-9832,-1316,3031,-2434,-6352,59.64,64.28827819,60.18347061,67.02,-0.001501914,-0.075206377,0.003470613,0.0125
201,10,0.9,2,40.94488189,1740.658892,-8262.675079,1195.756616,-910.1375033,-495.2398245,-1629.194075,-5302.750448,-9973.393818,-1460.536842,2797.077698,-2541.170886,-5956.663479,59.64,64.20365847,60.20186357,67.02,0,-0.08461972,0.018392957,0
201,10,0.9,2,41.73228346,1624.90379,-8448.923513,1193.810333,-940.8487102,-506.8091508,-1763.371506,-6246,-10112,-1592,2483,-2594,-5376,59.62125,64.2875,60.23029658,67.02,-0.01875,0.083841534,0.028433011,0
201,10,0.9,2,42.51968504,1447.137026,-8721.463361,1192.140192,-968.7816096,-518.0834123,-1916.869648,-7094.664202,-10379.83845,-1545.22099,2117.863534,-2491.231924,-4701.025139,59.56880859,64.53222656,60.26216884,67.02,-0.052441406,0.244726563,0.031872258,0
201,10,0.9,2,43.30708661,1219.760933,-9069.012683,1190.725236,-994.5841903,-529.4380425,-2087.025858,-7947.241195,-10737.91196,-1424.255973,1694.23544,-2232.701798,-3902.235858,59.52515625,64.7359375,60.29087954,67.02,-0.043652344,0.203710937,0.028710699,0
201,10,0.9,2,44.09448819,955.1778426,-9480.289538,1189.544505,-1018.904441,-541.2484751,-2271.177492,-8697.197591,-11051.52948,-1258.162969,1258.739625,-1893.070773,-3069.828648,59.52,64.73999593,60.31346169,67.01501602,-0.00515625,0.004058429,0.022582147,-0.004983981
201,10,0.9,2,44.88188976,665.7900875,-9944.011985,1188.577042,-1042.390351,-553.8901434,-2466.661905,-9238,-11186,-1076,858,-1547,-2294,59.52,64.69069815,60.33733985,66.99071962,0,-0.049297781,0.023878168,-0.024296402
201,10,0.9,2,45.66929134,364,-10448.89808,1187.801889,-1065.689908,-567.7384811,-2670.816454,-9544,-10676,-830,512,-1161,-1608,59.52,64.69,60.35544403,66.95895106,0,-0.000698148,0.018104173,-0.031768556
201,10,0.9,2,46.45669291,62.20991254,-10983.66589,1187.198088,-1089.451101,-583.1689216,-2880.978495,-9519.792336,-10465.02012,-748.5969727,324.4247287,-888.1690282,-892.661007,59.51868105,64.69,60.36,66.93356343,-0.00131895,0,0.004555974,-0.025387629
201,10,0.9,2,47.24409449,-227.1778426,-11537.03347,1186.74468,-1114.32192,-600.5568983,-3094.485383,-9435.055868,-10336.85288,-699.4487205,192.7782371,-685.5649531,-98.49806124,59.50039284,64.69,60.36,66.91444248,-0.018288215,0,0,-0.019120949
201,10,0.9,2,48.03149606,-491.7609329,-12097.71888,1186.420706,-1140.950353,-620.277845,-3308.674475,-9271.620377,-10259.6248,-670.8068598,96.10688833,-522.0144652,720.7962904,59.47477712,64.69,60.36,66.89559214,-0.025615713,0,0,-0.018850347
201,10,0.9,2,48.81889764,-719.1370262,-12654.44018,1186.20521,-1169.984389,-642.7071949,-3520.883127,-9011.315647,-10201.4624,-650.9230069,13.45704566,-366.3442548,1511.529501,59.46015266,64.69,60.36,66.87268118,-0.014624466,0,0,-0.022910956
201,10,0.9,2,49.60629921,-896.9037901,-13195.91543,1186.077232,-1202.072016,-668.2203817,-3728.448694,-8635.971461,-10130.49219,-628.0487781,-76.12492772,-187.3810127,2220.009024,59.46,64.70796256,60.36304282,66.83891799,-0.000152656,0.01796256,0.003042825,-0.033763195
201,10,0.9,2,50.39370079,-1012.658892,-13710.86268,1186.015815,-1237.861223,-697.1928389,-3928.708533,-8127.417603,-10014.84071,-590.4357898,-193.5926686,46.04857087,2792.542313,59.46,64.75792576,60.37205443,66.79237549,0,0.0499632,0.009011604,-0.0465425
201,10,0.9,3,51.18110236,-1054,-14188,1186,-1278,-730,-4119,-7467.483855,-9822.634476,-526.3356584,-359.8998138,365.1178053,3175.43682,59.46,64.81998496,60.38457217,66.73862862,0,0.0620592,0.012517739,-0.053746863
201,10,0.9,3,51.96850394,-705.0204082,-14706.69058,1299.404018,-1336.056701,-790.346673,-4325.562019,-6638,-9522,-424,-596,801,3315,59.46,64.87398016,60.39809166,66.6832993,0,0.0539952,0.013519492,-0.055329319
201,10,0.9,3,52.75590551,194.9795918,-15313.11107,1594.924958,-1417.35086,-896.4723924,-4561.539086,2762,-5788,504,-1278,2137,2264,59.46,64.89975136,60.41010852,66.63200943,0,0.0257712,0.012016863,-0.051289869
201,10,0.9,3,53.54330709,1425.591837,-15946.19969,2005.526148,-1510.157234,-1040.554681,-4804.62691,10502,-7806,1790,-2027,2672,2288,59.46,64.86274542,60.41811837,66.59038092,0,-0.037005937,0.008009851,-0.041628513
201,10,0.9,3,54.33070866,2766.408163,-16544.89467,2464.170919,-1602.750579,-1214.771064,-5032.521203,7740,-6690,-5134,-1981,37,3054,59.46,64.82430956,60.42,66.56313034,0,-0.038435867,0.001881626,-0.02725058
201,10,0.9,3,55.11811024,3997.020408,-17048.13422,2903.822598,-1683.40565,-1411.299062,-5222.917675,5912.886783,-6725.112,-4951.776,-1898.035743,43.188,3037.65437,59.46,64.80682196,60.42,66.54056589,0,-0.017487593,0,-0.022564452
201,10,0.9,3,55.90551181,4897.020408,-17394.85659,3257.444516,-1740.397205,-1622.3162,-5353.512037,4151.92578,-6820.416,-4457.168,-1777.450046,59.984,2991.051095,59.46,64.79177606,60.42,66.52002348,0,-0.015045903,0,-0.020542407
201,10,0.9,3,56.69291339,5246,-17524,3458,-1762,-1840,-5402,2486.836013,-6960.864,-3728.272,-1628.222972,84.736,2917.840593,59.46,64.77938565,60.42,66.50346952,0,-0.01239041,0,-0.016553964
201,10,0.9,3,57.48031496,4404.28571,-16117.81525,3555.041501,-1753.241125,-2175.848729,-5164.016364,947.3365025,-7131.408,-2843.184,-1459.334581,114.792,2821.673285,59.46,64.76986454,60.42,66.49287039,0,-0.009521113,0,-0.010599124
201,10,0.9,3,58.26771654,2727.015865,-13145.85272,3628.742973,-1729.593361,-2570.757698,-4639.588284,-436.8537305,-7317,-1880,-1279.764934,147.5,2706.19959,59.46,64.76342653,60.42,66.49644531,0,-0.006438012,0,0.003574918
201,10,0.9,3,59.05511811,1486,-10478,3658,-1695,-2761,-4113,-1636.015665,-7502.592,-916.816,-1098.494092,180.208,2575.069927,59.46,64.76028542,60.42,66.6165625,0,-0.003141108,0,0.120117188
201,10,0.9,3,59.84251969,910.0624875,-8466.414754,3274.24,-1555.877311,-2380.984012,-3692.286218,-2620.43028,-7673.136,-31.728,-924.5021169,210.264,2431.934718,59.46,64.76,60.42,66.64,0,-0.000285418,0,0.0234375
201,10,0.9,3,60.62992126,402.8502985,-6406.406598,2359.12,-1265.054009,-1465.472037,-3282.987021,-3360.378555,-7813.584,697.168,-766.769069,235.016,2280.44438,59.46,64.76,60.42,66.64,0,0,0,0
201,10,0.9,4,61.41732283,-1.593134338,-4582.591065,1266.88,-896.0920507,-351.2680554,-2865.644715,-3826.141469,-7908.888,1191.776,-634.2750097,251.812,2124.249334,59.49389653,64.76,60.42,66.64,0.033896534,0,0,0
201,10,0.9,4,62.20472441,-269.2243781,-3279.583688,351.76,-522.5533952,624.8239508,-2420.801606,-3988,-7944,1374,-536,258,1967,59.52483211,64.76196952,60.42,66.64738281,0.030935581,0.001969523,0,0.007382812
201,10,0.9,4,62.99212598,-366,-2782,-32,-218,1126,-1929,-3660,-7942,610.356787,-474.4786396,224.2409811,1760.151807,59.53977982,64.79419203,60.42,66.71261719,0.01494771,0.032222509,0,0.065234375
201,10,0.9,4,63.77952756,-304.8922962,-2802.652517,-25.13119534,22.16853974,1268.179065,-1362.686502,-3332,-7940,-154,-415,169,1532,59.55275137,64.85829009,60.42,66.72,0.012971543,0.064098062,0,0.007382812
201,10,0.9,4,64.56692913,-139.5865654,-2858.569616,-7.416909621,251.4636795,1391.164802,-723.1728172,-3349.111111,-8040.592593,-155.1528066,-320.9753822,124.3410421,1343.188558,59.56349557,64.94435403,60.42,66.72,0.010744197,0.086063935,0,0
201,10,0.9,4,65.35433071,102.891121,-2940.690615,16.80466472,469.6900369,1493.98025,-34.29889942,-3380.888889,-8227.407407,-155.7986255,-209.8974462,80.76914473,1166.043938,59.57176124,65.04247416,60.42,66.72,0.008265673,0.098120128,0,0
201,10,0.9,4,66.14173228,395.514692,-3039.954833,43.19533528,676.6522299,1575.648453,680.095296,-3398,-8328,-156,-116,45,987,59.57729721,65.1427408,60.42,66.72,0.00553597,0.100266641,0,0
201,10,0.9,4,66.92913386,711.2580762,-3147.301591,67.41690962,872.1548763,1635.192451,1396.169814,-3382.305115,-8319.232481,-102.5960828,-39.2746036,14.49330918,794.7077866,59.5798523,65.23524427,60.42,66.72,0.002555088,0.092503474,0,0
201,10,0.9,4,67.71653543,1023.095203,-3253.670206,85.13119534,1056.002594,1671.635286,2090.084701,-3340.755346,-8295.857442,31.65175172,36.82107096,-15.40502718,593.9421337,59.58,65.3169732,60.42,66.69047832,0.000147703,0.081728929,0,-0.029521677
201,10,0.9,4,68.50393701,1304,-3350,92,1228,1684,2738,-3281.653019,-8262.266163,207.7976276,102.8540473,-41.15001812,395.3225875,59.58,65.4,60.42,66.64,0,0.083026798,0,-0.050478323
201,10,0.9,4,69.29133858,1629.524419,-3420.975767,-42.78591234,1382.937306,1653.535108,3359.993082,-3213.300461,-8222.849923,386.895669,149.3913491,-59.19667271,209.4686942,59.58,65.47728612,60.39095176,66.69047832,0,0.077286116,-0.029048244,0.050478323
201,10,0.9,4,70.07874016,1965.428876,-3496.202542,-298.0162691,1523.425419,1571.959104,3959.784706,-3144,-8182,530,167,-66,47,59.57446289,65.574149,60.34725898,66.71468322,-0.005537109,0.096862886,-0.043692775,0.024204896
201,10,0.9,4,70.86614173,2120,-3634,-450,1661,1454,4489,-3077.927687,-8123.054077,651.056331,166.1300842,-63.8278011,-94.27877162,59.52553711,65.71578951,60.30387467,66.65633562,-0.048925781,0.141640504,-0.043384312,-0.058347603
201,10,0.9,4,71.65354331,2008,-4280,-466,1798,1187,4912,-3006.511426,-8040.485837,777.5783724,163.5102525,-57.80340331,-224.3528197,59.52,65.88191833,60.3,66.61321606,-0.005537109,0.166128822,-0.003874669,-0.043119552
201,10,0.9,4,72.44094488,2014,-5344,-424,1986,752,5517,-2918.931322,-7955.390558,890.9722483,159.1253787,-48.66510497,-344.287482,59.52,66.08435411,60.3,66.57,0,0.202435784,0,-0.043216064
201,10,0.9,4,73.22834646,1888,-5841.355302,-360.212963,2085.897297,382.501355,6006.097141,-2804.367478,-7888.863519,972.6440828,152.9603366,-37.15120442,-455.1480962,59.52,66.23845417,60.29079946,66.45530455,0,0.154100053,-0.009200538,-0.114695449
201,10,0.9,4,74.01574803,1654,-6186.349687,-290.662037,2158.802904,63.08401084,6428.108226,-2652,-7862,1004,145,-24,-558,59.52155837,66.26158152,60.26759839,66.26706762,0.001558367,0.023127353,-0.023201076,-0.188236931
201,10,0.9,4,74.80314961,1528,-6512,-258,2202,-73,6699,-2306,-8040,884,120,-1,-647,59.53611767,66.18881539,60.23699758,66.06217841,0.0145593,-0.072766131,-0.030600807,-0.204889207
201,10,0.9,4,75.59055118,1543.960064,-6867.591198,-268.2013524,2228.35534,-8.740796394,6860.502734,-1890.18984,-8017.703704,719.6456015,127.5877617,-2.772079772,-644.109589,59.5586312,66.09589864,60.20559785,65.89752614,0.022513532,-0.092916751,-0.031399731,-0.164652275
201,10,0.9,4,76.37795276,1591.373586,-7214.32657,-296.1728024,2252.504246,167.4537941,7009.907651,-1477.206031,-7976.296296,547.6005785,144.0644122,-6.766381766,-635.2191781,59.58,66.05,60.18,65.83,0.021368801,-0.045898636,-0.025597849,-0.067526138
201,10,0.9,4,77.16535433,1669.54056,-7553.100464,-337.9654395,2274.382749,430.7092412,7146.522934,-1290,-7954,468,160,-11,-620,59.5974299,66.05902704,60.16063669,65.86297437,0.017429901,0.009027041,-0.019363314,0.032974372
201,10,0.9,4,77.95275591,1777.760981,-7884.807227,-389.6303531,2293.92688,756.1510143,7269.656763,-1412,-8220,706,172,-15,-545,59.61444218,66.08211831,60.14278895,65.92850572,0.017012274,0.023091271,-0.017847733,0.065531347
201,10,0.9,4,78.74015748,1915.334844,-8210.341204,-447.2186326,2311.07267,1118.904583,7378.617317,-1361.664,-8218.55767,872.7432811,151.6120662,-8.923595506,-469.9053759,59.63141102,66.11328903,60.1253302,65.97650639,0.016968842,0.031170722,-0.017458752,0.048000668
201,10,0.9,4,79.52755906,2081.562144,-8530.596743,-506.7813674,2325.756151,1494.095417,7472.712778,-1241.632,-8214.47301,1028.006191,99.75619868,6.429213483,-396.493079,59.64871062,66.14655443,60.10783543,65.9744192,0.017299607,0.033265395,-0.017494766,-0.002087189
201,10,0.9,4,80.31496063,2275.742874,-8846.46819,-564.3696469,2337.913353,1856.848986,7551.251326,-1098.368,-8208.109515,1157.097461,30.39429801,26.74382022,-319.4280941,59.66671519,66.17592972,60.09102098,65.95279404,0.018004567,0.029375289,-0.016814451,-0.021625155
201,10,0.9,4,81.1023622,2497.17703,-9158.849893,-616.0345605,2347.480308,2182.290759,7613.541142,-978.336,-8199.83068,1245.32582,-42.5117351,47.70561798,-233.3754061,59.68579891,66.19543012,60.07349997,65.92577509,0.019083723,0.019500404,-0.017521014,-0.027018956
201,10,0.9,4,81.88976378,2745.164607,-9468.636198,-657.8271976,2354.393046,2445.546206,7658.890406,-928,-8190,1278,-105,65,-133,59.70630468,66.19838205,60.05368507,65.90460468,0.020505763,0.002951929,-0.019814896,-0.021170402
201,10,0.9,4,82.67716535,3019.005599,-9776.721451,-685.7986476,2358.5876,2621.740796,7686.607298,-1092,-8170,812,-156,78,5,59.72808548,66.17392796,60.03003529,65.88787333,0.0217808,-0.024454097,-0.023649786,-0.016731356
201,10,0.9,4,83.46456693,3318,-10084,-696,2360,2686,7696,-1089.164063,-8148.513723,819.4765625,-194.5253311,91.58604111,129.168386,59.75125645,66.13187915,60.00398547,65.87229862,0.023170973,-0.042048806,-0.026049815,-0.015574712
201,10,0.9,4,84.2519685,3917.358092,-10441.47249,-695.0812544,2232.097094,2673.410836,7526.298472,-1081.6875,-8126.310016,839.1875,-226.6954951,104.9029449,249.5761033,59.77609533,66.08753538,59.97762261,65.85687477,0.024838878,-0.044343768,-0.026362862,-0.015423846
201,10,0.9,4,85.03937008,4916.950474,-10828.58666,-691.7166783,1928.925585,2635.762228,7104.462591,-1071.117188,-8103.495635,867.0546875,-254.9165997,118.37656,366.043717,59.80287985,66.0561964,59.95303368,65.84059601,0.026784518,-0.031338983,-0.024588928,-0.016278756
201,10,0.9,4,85.82677165,6053.067619,-11138.9075,-684.9937631,1571.291283,2573.232507,6561.395415,-1059,-8080.177333,899,-281.5947526,132.4327347,478.3917917,59.83369589,66.05,59.93265942,65.82282543,0.030816045,-0.006196398,-0.020374263,-0.017770582
201,10,0.9,4,86.61417323,7062,-11266,-674,1280,2486,6028,-1046.882813,-8056.461864,930.9453125,-309.1360614,147.4973176,586.4408925,59.87844428,66.05,59.91848406,65.80520813,0.04474839,0,-0.014175356,-0.017617302
201,10,0.9,4,87.4015748,7874,-11094,-324,1087,2193,5484,-1036.3125,-8032.455983,958.8125,-339.9466338,163.9961571,690.0115843,59.92103371,66.05,59.90367905,65.7853782,0.042589427,0,-0.014805013,-0.019829931
201,10,0.9,4,88.18897638,8942.676329,-10642.4831,-304.7915127,830.0581257,1634.95147,4721.756386,-1028.835938,-8008.266444,978.5234375,-376.4325775,182.3551017,788.9244318,59.94,66.05,59.88,65.76,0.018966292,0,-0.023679052,-0.0253782
201,10,0.9,4,88.97637795,10043.6715,-9922.121269,-294.8402008,548.0023941,906.5569432,3811.162543,-1026,-7984,986,-421,203,883,59.94,66.01242653,59.80297829,65.70803316,0,-0.037573471,-0.077021712,-0.051966843
201,10,0.9,4,89.76377953,10550,-9140,-292,333,294,2885,-1251,-7952.932672,980.3243243,-488.3186878,230.5842261,968.2264045,59.94128571,65.96244538,59.74491628,65.6907687,0.00128571,-0.049981147,-0.058062007,-0.017264458
201,10,0.9,4,90.5511811,10408.44444,-8134.752967,-418.2248217,214.8380161,-190.3675367,2002.656361,-1476,-7934,972,-568,263,1048,59.95437126,65.91846511,59.71387704,65.69856253,0.013085552,-0.043980269,-0.031039243,0.00779383
201,10,0.9,4,91.33858268,10145.55556,-7047.265372,-734.2274212,125.4004726,-608.7948794,1103.881423,-1449.660921,-7935.146573,968.0781168,-639.2074221,293.2217851,1123.911654,59.97818227,65.87440733,59.68998772,65.71265353,0.023811008,-0.044057784,-0.023889317,0.014091003
201,10,0.9,4,92.12598425,10004,-6538,-1146,10,-787,142,-1384.182762,-7939.279719,965.7911072,-707.6597302,322.5538508,1194.585162,60.00849827,65.8303425,59.67027492,65.73042731,0.030316004,-0.044064831,-0.019712796,0.017773779
201,10,0.9,4,92.91338583,10828,-9860,-2020.080409,-214.059995,-616.4976888,-940.2028815,-1299.874142,-7947.439578,963.4650392,-778.0083273,353.775024,1266.502844,60.04109881,65.78634109,59.65176525,65.74926947,0.032600538,-0.044001409,-0.018509678,0.018842159
201,10,0.9,4,93.7007874,11652,-13182,-2680,-419,-293,-2077,-1217.043682,-7960.666292,959.4259808,-854.9046163,389.6641314,1346.147017,60.07621832,65.74356783,59.63186227,65.76707382,0.035119506,-0.042773255,-0.019902974,0.01780435
201,10,0.9,4,94.48818898,10967.89894,-9015,-214,-507.0011244,185.4976888,-3483.545383,-1156,-7980,952,-943,433,1440,60.1180872,65.70097531,59.6122678,65.78664533,0.04186888,-0.042592528,-0.019594473,0.01957151
201,10,0.9,4,95.27559055,9844,-4848,2252,-564,511,-4331,-1120,-8336,852,-1058,498,1569,60.12,65.61400682,59.59427528,65.80858048,0.001912802,-0.086968489,-0.017992522,0.021935147
201,10,0.9,4,96.06299213,8895.26345,-4960.056,2137.368,-609.8449319,490.728,-4318.843883,-887.6408209,-9123.593235,915.7037037,-1110.606953,595.2184726,1645.766057,60.12014208,65.53728212,59.57855983,65.83253675,0.00014208,-0.076724701,-0.015715445,0.023956277
201,10,0.9,4,96.8503937,7840.565451,-5264.208,1826.224,-654.1332258,435.704,-4283.462696,-392.0646952,-10361.37267,1074.962963,-1143.760055,722.2574227,1700.273909,60.13486848,65.5129651,59.56651784,65.865025,0.0147264,-0.024317018,-0.012041994,0.03248825
201,10,0.9,4,97.63779528,6728.386261,-5712.432,1367.696,-696.0948765,354.616,-4226.487182,230.5079134,-11784.72069,1282,-1167.917609,857.9359504,1745.037394,60.16572288,65.49394606,59.55698384,65.9045068,0.0308544,-0.019019039,-0.009534002,0.039481792
201,10,0.9,4,98.42519685,5607.206133,-6256.704,810.912,-734.959879,256.152,-4149.548087,843.8565413,-13129.01967,1489.037037,-1193.537917,981.0731558,1792.570346,60.20118528,65.48036023,59.54741163,65.94247756,0.0354624,-0.013585827,-0.009572204,0.037970762
201,10,0.9,4,99.21259843,4525.505324,-6849,205,-769.9582283,149,-4054.276154,1311.760725,-14129.65198,1648.296296,-1231.07928,1070.488139,1855.386602,60.22973568,65.47234285,59.53525503,65.97043272,0.0285504,-0.008017381,-0.012156601,0.027955162
201,10,0.9,4,100,3531.764089,-7441.296,-400.912,-800.3199193,41.848,-3942.30213,1498,-14522,1712,-1291,1105,1946,60.24,65.47,59.51757308,65.98,0.01026432,-0.002342852,-0.017681949,0.00956728
201,10,0.9,1,0,2674.462683,-7985.568,-957.696,-825.2749471,-56.616,-3815.256758,1193.935583,-12092,-80,-1486.999954,902.8191997,2149.097669,60.24,65.47,59.47177335,65.98,0,0,-0.045799732,0
201,10,0.9,1,0.81300813,2002.081363,-8433.792,-1416.224,-844.0533064,-137.704,-3674.770782,748,-9662,-1872,-1727,637,2400,60.24,65.44963531,59.46095258,65.98048596,0,-0.02036469,-0.010820772,0.000485961
201,10,0.9,1,1.62601626,1563.100383,-8737.944,-1727.368,-855.8849924,-192.728,-3522.474948,449.2256305,-10843.18519,-988.9015932,-1896.120194,515.3584599,2582.969725,60.24,65.34862251,59.46767548,65.98423412,0,-0.101012795,0.006722901,0.003748158
201,10,0.9,1,2.43902439,1406,-8850,-1842,-860,-213,-3360,191.6128153,-13036.81481,655.9745913,-2040.842598,422.790341,2751.966624,60.24,65.24250798,59.47882712,65.99137387,0,-0.106114531,0.011151638,0.007139746
201,10,0.9,1,3.25203252,1998.148148,-8767.658768,-1151.333333,-734.7252747,-197.4363786,-3083.320833,82,-14218,1556,-2105,386,2950,60.24,65.18,59.49201358,66.00153313,0,-0.062507984,0.013186462,0.010159262
201,10,0.9,1,4.06504065,3097.851852,-8587.984202,131.3333333,-476.1172161,-161.650535,-2694.877837,96.06997085,-14211.01926,1578.974947,-2109.671805,411.4810496,3244.320082,60.24,65.18,59.50484095,66.01433983,0,0,0.012827376,0.012806704
201,10,0.9,1,4.87804878,3690,-8412,822,-260,-122,-2356,132.3556851,-14190.75807,1597.372233,-2113.429661,477.1953353,3638.288096,60.24,65.18,59.51491533,66.0294219,0,0,0.010074377,0.015082073
201,10,0.9,1,5.691056911,3652.666667,-8244.312094,500.5185185,-135.7870702,-71.20131687,-2136.454436,181.9708455,-14158.23799,1611.572038,-2116.344719,567.0495627,4079.079837,60.24,65.18,59.5198428,66.04640727,0,0,0.004927468,0.016985369
201,10,0.9,1,6.504065041,3583.333333,-8080.044936,-96.51851852,-33.52774234,-14.71176955,-1948.454824,236.0291545,-14114.48059,1621.954539,-2118.488131,664.9504373,4513.871102,60.2484022,65.19120293,59.5031956,66.07307577,0.008402198,0.011202931,-0.016647196,0.026668498
201,10,0.9,1,7.317073171,3546,-8006,-418,50,12,-1717,285.6443149,-14060.50742,1628.899914,-2119.931048,754.8046647,4889.837687,60.27264401,65.22352534,59.45471199,66.11888252,0.024241807,0.03232241,-0.048483615,0.045806752
201,10,0.9,1,8.130081301,3882,-8110,684,113,-32,-1361,321.9300292,-13997.34003,1632.788341,-2120.744621,820.5189504,5154.155388,60.29505394,65.25340525,59.40989212,66.17111396,0.022409933,0.02987991,-0.044819866,0.052231438
201,10,0.9,1,8.943089431,3834,-8036,1274,97,-49,-1104,336,-13926,1634,-2121,846,5254,60.29756908,65.26,59.4,66.21734452,0.002515141,0.006594749,-0.009892123,0.046230555
201,10,0.9,1,9.756097561,3753.210672,-8043.666294,1246.937652,79.8657188,-48.86276915,-857.3446675,290.9175032,-13716.05806,1566.549962,-2109.883761,830.8628779,5214.572055,60.27676601,65.26,59.4,66.25804339,-0.020803072,0,0,0.040698871
201,10,0.9,2,10.56910569,3640.452414,-8064.398807,1175.667152,60.7614534,-48.36086127,-607.1639403,165.2468133,-13255.15278,1381.606311,-2076.839391,785.1989225,5101.708985,60.25095417,65.26,59.4,66.2980152,-0.025811837,0,0,0.039971818
201,10,0.9,2,11.38211382,3490.738722,-8094.797987,1075.063319,41.9549763,-47.35895339,-364.2484642,-26.64686933,-12571.40746,1105.278738,-2022.32341,708.62925,4923.541936,60.24,65.26,59.4,66.34110547,-0.01095417,0,0,0.043090267
201,10,0.9,2,12.19512195,3299.083091,-8131.46428,960.0009704,25.71406003,-45.72172254,-139.3888848,-270.398344,-11692.94541,763.6769346,-1946.792339,600.7749765,4688.202057,60.24,65.26,59.4,66.39115969,0,0,0,0.050054218
201,10,0.9,2,13.00813008,3060.499019,-8170.998136,845.3549248,14.30647709,-43.31384573,56.62415181,-551.6424103,-10647.88993,382.9105935,-1850.702697,461.2572184,4403.820494,60.23886,65.26,59.4,66.45611058,-0.00114,0,0,0.064950888
201,10,0.9,2,13.82113821,2770,-8210,746,10,-40,213,-856.0138675,-9464.364322,-10.91059354,-1734.511005,289.6970919,4078.528394,60.23082,65.26,59.4,66.55129518,-0.00804,0,0,0.095184606
201,10,0.9,2,14.63414634,2148,-8256,660,31,34,320,-1169.147515,-8170.491892,-391.6769346,-1598.673784,85.71571307,3720.456905,60.2175,65.26,59.4,66.65134285,-0.01332,0,0,0.100047671
201,10,0.9,2,15.44715447,2200,-8668,856,43,-25,541,-1476.678153,-6794.395942,-733.2787378,-1443.647552,-151.0658017,3337.737174,60.20178,65.26,59.4,66.72533444,-0.01572,0,0,0.073991588
201,10,0.9,2,16.2601626,2272,-8234,1578,21,-105,735,-1764.24058,-5364.199774,-1009.606311,-1269.888831,-421.0263363,2938.500348,60.18654,65.26,59.4,66.76395043,-0.01524,0,0,0.038615987
201,10,0.9,2,17.07317073,1994.444672,-7816.876007,1121,-8.160583942,-95,756.2234043,-2017.469596,-3908.026693,-1194.549962,-1077.85414,-724.5447745,2530.877574,60.17346,65.25913557,59.4,66.84460687,-0.01308,-0.00086443,0,0.080656441
201,10,0.9,2,17.88617886,1582,-7588,664,-26,-85,763,-2222,-2454,-1262,-868,-1062,2123,60.15822,65.25234899,59.4,67.00587153,-0.01524,-0.00678658,0,0.16126466
201,10,0.9,2,18.69918699,1354.420096,-7703.9375,675.9128185,-20.53125,-91.25,749.6071429,-2376,-610,-1106,-413,-1927,1590,60.1425,65.23910514,59.4,67.1530121,-0.01572,-0.013243851,0,0.147140571
201,10,0.9,2,19.51219512,1174.232277,-7959,711.6008493,-8.5,-105,714.7857143,-2369.009233,-684.4506955,-1005.529459,-30.36149179,-1856.352354,964.4879079,60.12918,65.21974764,59.4,67.31680544,-0.01332,-0.019357496,0,0.163793341
201,10,0.9,2,20.32520325,985.9283202,-8214.0625,770.9884554,3.53125,-118.75,666.5714286,-2348.585227,-887.8130989,-910.3238989,329.9586243,-1669.154501,262.7941062,60.12114,65.19462013,59.4,67.4825959,-0.00804,-0.025127513,0,0.165790454
201,10,0.9,2,21.13821138,734,-8330,854,9,-125,613,-2315.550426,-1190.102686,-822.889478,670.4569003,-1402.524064,-483.4531085,60.12,65.13865875,59.4,67.63502427,-0.00114,-0.05596138,0,0.152428374
201,10,0.9,2,21.95121951,312,-8226,1136,-4,-87,538,-2270.727273,-1561.334931,-745.7323546,993.6298883,-1093.578669,-1242.62544,60.12,64.95467504,59.4,67.75873137,0,-0.183983711,0,0.123707101
201,10,0.9,2,22.76422764,532,-8066.378151,1128.075472,-26.37857143,-89.33333333,425.7659968,-2214.93821,-1971.525309,-681.3586868,1301.97414,-779.4359408,-1983.094591,60.12,64.75793777,59.4,67.83835801,0,-0.196737264,0,0.079626634
201,10,0.9,2,23.57723577,752,-7964,1108,-56,-95,297,-2149.005682,-2390.689297,-632.274633,1597.986208,-497.2135032,-2673.232266,60.12,64.69,59.40170115,67.85283413,0,-0.067937774,0.001701153,0.014476121
201,10,0.9,2,24.3902439,673.7299175,-8201,1009.924528,-98.76129707,-116.6666667,174.2975679,-2073.752131,-2788.842369,-600.9863513,1884.162644,-284.0289813,-3281.410168,60.12,64.69,59.44160471,67.69388317,0,0,0.039903561,-0.158950955
201,10,0.9,2,25.20325203,490,-8438,924,-134,-135,45,-1990,-3136,-590,2163,-177,-3776,60.11728385,64.68683115,59.48383289,67.55261826,-0.002716155,-0.003168847,0.042228175,-0.141264917
201,10,0.9,2,26.01626016,78,-8060,1086,-145,-126,-101,-1822.615648,-3421.584284,-666.7226624,2436.450949,-147.5479121,-4150.174213,60.10235269,64.66941147,59.52312261,67.41560085,-0.014931159,-0.017419686,0.03928972,-0.13701741
201,10,0.9,2,26.82926829,43.61201651,-7881.498056,1005.111111,-168.7860374,-131.7369486,-232.7178087,-1604,-3754,-772,2667,-123,-4464,60.07780347,64.64077072,59.56299265,67.27799544,-0.024549215,-0.02864075,0.039870039,-0.137605405
201,10,0.9,2,27.64227642,25.36156381,-7755.637917,854.8888889,-201.0297503,-143.9183415,-356.4689924,-1416,-4294,-816,2826,-86,-4746,60.04754455,64.60546865,59.60473533,67.15073104,-0.030258918,-0.035302072,0.041742685,-0.127264397
201,10,0.9,2,28.45528455,20,-7708,774,-227,-155,-473,-1266,-5356,-966,3023,-25,-5127,60.01548428,64.568065,59.64964299,67.04473666,-0.032060271,-0.037403649,0.044907661,-0.105994386
201,10,0.9,2,29.26829268,143.9887334,-7728.174645,818.375,-241.4132998,-161.7672003,-585.0198354,-1278.861395,-5752.625817,-1039.919705,3187.598203,-52.07061389,-5390.109499,59.98177416,64.52546115,59.69900796,66.97094128,-0.033710127,-0.042603848,0.049364965,-0.073795373
201,10,0.9,2,30.08130081,422.1366224,-7775.799054,916,-251.8456609,-167.2788027,-692.966492,-1316.984186,-6043.250118,-1097.418119,3341.596365,-124.3718417,-5609.317381,59.94279438,64.48058026,59.75412256,66.94027393,-0.038979779,-0.044880887,0.055114598,-0.030667356
201,10,0.9,2,30.89430894,713.7162002,-7831.523936,1013.625,-262.8551916,-173.4010037,-794.1799025,-1379.676279,-6256.961511,-1142.556681,3482.395425,-228.5377625,-5803.270513,59.91907162,64.48,59.84137762,66.94,-0.02372276,-0.000580261,0.087255063,-0.000273928
201,10,0.9,2,31.70731707,878,-7876,1058,-279,-182,-886,-1466.245581,-6422.848603,-1179.396829,3607.396324,-351.2024556,-5990.615764,59.90067174,64.48,59.88,66.93846123,-0.018399874,0,0.038622381,-0.001538775
201,10,0.9,2,32.5203252,928.4406481,-7903.118467,1056.774886,-313.4073157,-201.5941218,-968.0867134,-1576,-6570,-1212,3714,-479,-6190,59.88540751,64.48,59.88,66.91712497,-0.015264232,0,0,-0.021336251
201,10,0.9,2,33.33333333,972.0768639,-7922.528241,1052.501321,-370.5843754,-235.2968245,-1043.284161,-1884,-6688,-1238,3795,-646,-6401,59.87123715,64.48,59.88,66.88723998,-0.01417036,0,0,-0.029884999
201,10,0.9,2,34.14634146,1008.56032,-7938.51656,1044.281969,-442.1592982,-276.8669924,-1113.70856,-2157.615862,-6886.357352,-1285.937854,3787.446165,-790.6625677,-6395.401775,59.85611889,64.48,59.88,66.8701781,-0.015118257,0,0,-0.017061877
201,10,0.9,2,34.95934959,1037.542689,-7955.370659,1031.219496,-519.760203,-320.0635096,-1181.476126,-2396.75843,-7161.803777,-1357.373398,3765.368587,-926.028865,-6378.241867,59.83801097,64.48,59.88,66.87,-0.018107924,0,0,-0.000178099
201,10,0.9,2,35.77235772,1058.675644,-7977.377774,1012.416567,-595.0152089,-358.6452604,-1248.703077,-2614.487201,-7496.184428,-1445.583512,3729.643156,-1054.138113,-6348.972426,59.81461219,64.48074018,59.88201592,66.86841389,-0.023398775,0.000740184,0.002015919,-0.001586109
201,10,0.9,2,36.58536585,1071.610856,-8008.825143,986.9758465,-659.5524349,-386.3711291,-1317.505629,-2823.861672,-7871.344455,-1543.845073,3681.145761,-1177.029531,-6307.045602,59.77879736,64.50103681,59.93939968,66.82492111,-0.035814837,0.02029663,0.057383766,-0.043492779
201,10,0.9,2,37.39837398,1076,-8054,954,-705,-397,-1390,-3037.94134,-8269.12901,-1645.434959,3620.752294,-1296.742342,-6251.913544,59.73731701,64.53185185,60.03537167,66.75888889,-0.041480342,0.030815037,0.095971982,-0.066032223
201,10,0.9,2,38.21138211,978,-8212,598,-731,-396,-1467,-3269.7857,-8671.383244,-1743.630049,3549.338642,-1415.315765,-6183.028402,59.70261777,64.54981106,60.11504268,66.72040488,-0.034699245,0.017959206,0.079671018,-0.038484014
201,10,0.9,2,39.02439024,714.0270847,-9012.610304,735.696,-749.1870027,-451.64,-1492.139767,-3532.454249,-9059.952309,-1831.70722,3467.780697,-1534.789022,-6099.842328,59.67891031,64.55,60.15509985,66.80161001,-0.023707459,0.000188942,0.040057162,0.081205139
201,10,0.9,2,39.83739837,280.5904703,-10575.79659,1064.048,-762.9785943,-584.32,-1505.982543,-3839.006485,-9416.681356,-1902.94335,3376.954349,-1657.201333,-6001.807469,59.65859984,64.55,60.18583096,66.87,-0.020310468,0,0.030731115,0.068389986
201,10,0.9,2,40.6504065,-191.2596865,-12361.27773,1455.952,-776.2766846,-742.68,-1516.055436,-4202.501903,-9723.415536,-1950.615317,3277.735486,-1784.591918,-5888.375976,59.64068504,64.55,60.21183606,66.87,-0.017914798,0,0.026005098,0
201,10,0.9,2,41.46341463,-570.4732288,-13828.77258,1784.304,-792.9831832,-875.36,-1529.885553,-4636,-9962,-1968,3171,-1919,-5759,59.62424399,64.55,60.23453264,66.87,-0.016441052,0,0.022696578,0
201,10,0.9,2,42.27642276,-726,-14438,1922,-817,-931,-1555,-5438,-10124,-1836,2975,-2065,-5363,59.60835476,64.55,60.25656751,66.87,-0.015889229,0,0.022034874,0
201,10,0.9,2,43.08943089,-711,-13918.3125,1642.625,-874.8368221,-914.4233051,-1652.99899,-6392,-10244,-1948,2613,-2207,-4671,59.59209543,64.55,60.2805875,66.87,-0.016259331,0,0.024019986,0
201,10,0.9,2,43.90243902,-678,-12775,1028,-968.7589131,-874.1288136,-1846.981658,-7317.383641,-10361.27807,-1961.600406,2256.889509,-2181.028978,-3967.794338,59.57457039,64.54846123,60.31100625,66.87577041,-0.017525043,-0.001538775,0.030418755,0.005770405
201,10,0.9,2,44.71544715,-645,-11631.6875,413.375,-1066.301548,-824.2699153,-2086.723498,-8170,-10426,-1966,1920,-2115,-3288,59.55596405,64.52712497,60.35374154,66.93019744,-0.018606337,-0.021336251,0.04273529,0.05442703
201,10,0.9,2,45.52845528,-630,-11112,134,-1135,-779,-2322,-8878,-10286,-1790,1624,-1918,-2676,59.53775123,64.49723998,60.36,66.93916448,-0.018212825,-0.029884999,0.006258457,0.008967046
201,10,0.9,2,46.34146341,-686.6122449,-11291.80758,227.9475219,-1177.838502,-735.9360874,-2546.773574,-9866,-9846,-1568,1128,-1470,-1740,59.52146386,64.4801781,60.36,66.93437812,-0.016287371,-0.017061877,0,-0.004786361
201,10,0.9,2,47.15447154,-832.6122449,-11755.52187,470.2332362,-1218.397012,-686.4339082,-2786.582052,-10138,-9330,-1550,760,-1132,-1111,59.50611687,64.48279958,60.36,66.92599864,-0.015346992,0.002621481,0,-0.008379484
201,10,0.9,2,47.96747967,-1032.244898,-12389.58017,801.5218659,-1255.104397,-635.2549192,-3038.564063,-9519.27572,-9377.8738,-1388.130777,422.2523054,-774.4712494,-597.4731744,59.4900312,64.4918993,60.36,66.91477506,-0.016085667,0.00909972,0,-0.011223573
201,10,0.9,2,48.7804878,-1249.755102,-13080.41983,1162.478134,-1286.389522,-587.1605772,-3299.858235,-7861.09465,-9506.175583,-1001.489605,71.14294456,-375.4067858,-125.4286165,59.47546398,64.50637493,60.36,66.90145644,-0.014567221,0.014475628,0,-0.013318627
201,10,0.9,2,49.59349593,-1449.387755,-13714.47813,1493.766764,-1310.681254,-546.9123388,-3567.603196,-5460.444444,-9691.925926,-455.1790203,-280.771544,42.87143337,313.8553429,59.46470466,64.52526607,60.36,66.88679179,-0.010759319,0.018891139,0,-0.014664646
201,10,0.9,2,50.40650407,-1595.387755,-14178.19242,1736.052478,-1326.408458,-519.2716608,-3838.937575,-2614.312757,-9912.145405,185.698438,-620.9346218,458.0414506,729.1003729,59.4600427,64.54761232,60.36,66.87153016,-0.004661961,0.022346253,0,-0.01526163
201,10,0.9,2,51.2195122,-1652,-14358,1830,-1332,-509,-4111,380.3127572,-10143.8546,856.0402319,-936.7897503,847.7813087,1129.028142,59.46,64.5997636,60.36,66.85549481,-4.27E-05,0.052151282,0,-0.016035353
201,10,0.9,3,52.03252033,-936,-13214,994,-1232,-824,-4393,3226.444444,-10364.07407,1490.743823,-1215.780391,1189.76905,1522.360321,59.46,64.68688762,60.36,66.834935,0,0.087124021,0,-0.020559806
201,10,0.9,3,52.84552846,-316.1050822,-13236,1312,-1104.226027,-1229.948962,-4729.897882,5627.09465,-10549.82442,2024.706674,-1445.350005,1461.682717,1917.818577,59.46,64.7525143,60.36,66.80535978,0,0.065626674,0,-0.029575223
201,10,0.9,3,53.65853659,12,-13258,1630,-1027,-1476,-5042,7285.27572,-10678.1262,2392.826245,-1612.942054,1641.200353,2324.124581,59.46,64.76,60.37898438,66.73285011,0,0.007485704,0.018984375,-0.072509672
201,10,0.9,3,54.47154472,-154,-11852,1390,-1058,-1410,-5253,7904,-10726,2530,-1706,1706,2750,59.46,64.76,60.42,66.64,0,0,0.041015625,-0.092850105
201,10,0.9,3,55.28455285,-454.2008889,-10693.22095,1528.262391,-1106.923603,-1528.043732,-5105.830943,4775.639216,-9666.874411,602.6666667,-1754.343132,1152.740741,3291.548452,59.46,64.76,60.42,66.64,0,0,0,0
201,10,0.9,3,56.09756098,-890.4898967,-9610.219278,1884.833819,-1173.262374,-1832.472303,-4720.150762,-1368.721569,-7684.63771,-2976.666667,-1790.060455,125.2592593,3837.829782,59.46,64.76,60.42,66.64,0,0,0,0
201,10,0.9,3,56.91056911,-1396.431117,-8596.827229,2372.390671,-1247.925348,-2248.731778,-4179.699943,-5668,-6572,-4904,-1804,-428,4087,59.46,64.76,60.42,66.64,0,0,0,0
201,10,0.9,3,57.72357724,-1905.588644,-7646.87704,2903.609329,-1321.821562,-2702.268222,-3568.218972,-7251.094118,-6507.932955,-1706,-1606,-116.8462767,3687.084219,59.46,64.76,60.42,66.64,0,0,0,0
201,10,0.9,3,58.53658537,-2351.526571,-6754.200946,3391.166181,-1385.860052,-3118.527697,-2969.448334,-7956,-6484,1492,-1408,267,3086,59.46,64.76,60.42,66.64,0,0,0,0
201,10,0.9,3,59.3495935,-2667.808992,-5912.631187,3747.737609,-1430.949852,-3422.956268,-2467.128515,-6268.740741,-6999.925926,233.037037,-1432.888889,399.5415289,2686.064123,59.46,64.76,60.42,66.64,0,0,0,0
201,10,0.9,3,60.16260163,-2788,-5116,3886,-1448,-3541,-2145,-3135.259259,-7958.074074,-2105.037037,-1479.111111,493.3818756,2335.241718,59.46139745,64.76094683,60.42,66.65384277,0.001397446,0.000946826,0,0.013842773
