locomotion_mode,terrain_info,walk_speed_info,gait_phase,gait_percentage,left_accel_x,left_accel_y,left_accel_z,left_gyro_x,left_gyro_y,left_gyro_z,right_accel_x,right_accel_y,right_accel_z,right_gyro_x,right_gyro_y,right_gyro_z,left_hip_angle,left_knee_angle,right_hip_angle,right_knee_angle,left_hip_angle_vel,left_knee_angle_vel,right_hip_angle_vel,right_knee_angle_vel
201,5,0.9,1,8.759124088,1614,-8102,-104,-88,-55,-1681,-544,-11136,-124,-2294,483,3142,59.94,65.20817704,59.82,65.4,0,-0.039090367,0,0
201,5,0.9,1,9.489051095,1562.983051,-8183.929348,-85.78531073,-42.72387132,-44.77276995,-1528.883444,-2002,-10462,-224,-2342,595,3167,59.94,65.17094671,59.82,65.4,0,-0.037230329,0,0
201,5,0.9,1,10.2189781,1544,-8252,-42,3,-27,-1388,-2885.225849,-10224.60493,437,-2297.453199,640.6253444,3211.541868,59.94,65.13127694,59.82,65.4,0,-0.039669774,0,0
201,5,0.9,1,10.94890511,1698,-8204,106.4794284,30.81081728,-1.26056338,-1264.675907,-3728,-10130,1098,-2207,693,3249,59.94,65.08486824,59.82,65.4,0,-0.046408701,0,0
201,5,0.9,1,11.67883212,1852,-8156,250,49,16,-1152,-5279.779917,-10908,1047,-2066.08146,962.5771449,3263.019608,59.94,65.02649382,59.81932617,65.4,0,-0.058374416,-0.000673828,0
201,5,0.9,1,12.40875912,1772.992063,-8196.317797,273.2854742,57.33568135,-11.75438596,-1046.761734,-6314,-11686,996,-1920,1321,3269,59.94,64.93695616,59.80101563,65.4,0,-0.089537665,-0.018310547,0
201,5,0.9,1,13.13868613,1632,-8266,298,64,-40,-948,-5436,-10878,1542,-1837,1553,3062,59.94,64.84309905,59.77391602,65.4,0,-0.093857105,-0.027099609,0
201,5,0.9,2,13.86861314,1459.007937,-8343.682203,579.0204082,74.4921875,-40.74561404,-846.0561347,-5058,-10060,1106,-1691,1809,2954,59.94,64.76,59.76,65.4,0,-0.083099053,-0.013916016,0
201,5,0.9,2,14.59854015,1348,-8392,838,81,-41,-765,-4415.608779,-9161.08053,1545,-1510.531561,1942.396117,2727.390415,59.90214126,64.71627554,59.76,65.4,-0.037858742,-0.043724455,0,0
201,5,0.9,2,15.32846715,1426.641975,-8285,745.4321767,52,-38.5,-726.3167166,-3464,-8084,1984,-1286,2002,2384,59.88,64.67767096,59.76,65.39422959,-0.022141258,-0.038604588,0,-0.005770405
201,5,0.9,2,16.05839416,1544,-8178,576,23,-36,-687,-1472.065105,-6556.61596,1210.159109,-962.4318321,1347.187482,1705.815562,59.88,64.63659881,59.76,65.33980256,0,-0.041072152,0,-0.05442703
201,5,0.9,2,16.78832117,1617.618894,-8236.034483,351.5678233,44.93103448,-60.5,-594.3412267,210,-4740,-180,-599,256,1219,59.88,64.59489157,59.76,65.33,0,-0.041707236,0,-0.009802565
201,5,0.9,2,17.51824818,1672,-8310,204,71,-85,-489,616.9863272,-2286.869755,-1920.159109,-251.4428033,-728.8438406,1493.5,59.88,64.5527098,59.76,65.33,0,-0.042181774,0,0
201,5,0.9,2,18.24817518,1699.620319,-8338.965517,211.98,76.03192848,-74.5,-420.527809,778,-744,-3044,53,-1489,1768,59.88,64.51009579,59.72214126,65.36388962,0,-0.042614008,-0.037858742,0.033889618
201,5,0.9,2,18.97810219,1728,-8352,232,81,-64,-351,702.842437,-899.905888,-529,249.2187821,-1874.343641,1254.679334,59.88,64.46499358,59.70553711,65.41486452,0,-0.045102204,-0.016604149,0.050974904
201,5,0.9,2,19.7080292,1811.118812,-8266,324.02,95.58336292,-71,-240.6583355,508,-1246,1986,454,-2048,396,59.88,64.4144877,59.75446289,65.46547955,0,-0.050505881,0.048925781,0.050615031
201,5,0.9,2,20.4379562,1874,-8180,404,125,-78,-140,-605.9437998,-2048.864766,1202.391015,833.7383541,-1742.415376,-321.7718422,59.85983539,64.42666743,59.76,65.47,-0.020164609,0.012179729,0.005537109,0.004520447
201,5,0.9,2,21.16788321,1726.759657,-8630,336,268.9536741,37,-90.71250598,-1602,-2816,232,1239,-1228,-995,59.82053498,64.47569878,59.76,65.47,-0.039300412,0.049031346,0,0
201,5,0.9,2,21.89781022,1536,-9080,268,394,152,-48,-1604,-3024,-24,1513,-804,-1538,59.82,64.5286298,59.76,65.47,-0.000534979,0.052931025,0,0
201,5,0.9,2,22.62773723,1474.129614,-8735.185185,441.7037037,350.7085346,105.7521503,10.37673532,-1616,-3162,134,1908,-161,-2179,59.82,64.54547955,59.76,65.47452045,0,0.016849752,0,0.004520447
201,5,0.9,2,23.35766423,1432.951646,-8094.814815,764.2962963,265.6392915,13.72652273,73.47611695,-1588.134228,-3320.204086,-136.8585132,2174.886461,230.579478,-2741.878576,59.82,64.49486452,59.76,65.52513548,0,-0.050615031,0,0.050615031
201,5,0.9,2,24.08759124,1368,-7750,938,206,-54,126,-1520,-3530,-614,2406,469,-3220,59.82,64.44388962,59.76,65.56866347,0,-0.050974904,0,0.043527994
201,5,0.9,2,24.81751825,1151.186137,-8017,872.6077348,187.2981366,-84.05450237,170.534188,-1306.384911,-3899.59668,-1131.850956,2654.090014,586.8135169,-3593.448893,59.82,64.41,59.76,65.61,0,-0.033889618,0,0.041336528
201,5,0.9,2,25.54744526,954,-8284,762,174,-98,194,-1020,-4398,-1534,2876,638,-3901,59.82,64.45416853,59.76,65.65728679,0,0.044168532,0,0.04728679
201,5,0.9,2,26.27737226,910.8987342,-8102,646.3922652,163.4006969,-78,139.3609694,-810,-5006,-1656,3040,576,-4146,59.82,64.48,59.76,65.70285649,0,0.025831468,0,0.045569702
201,5,0.9,2,27.00729927,894,-7920,576,150,-58,63,-364,-5820,-1788,3259,318,-4437,59.82,64.48,59.76,65.74343208,0,0,0,0.040575586
201,5,0.9,2,27.73722628,1035,-8024,823,109.93551,-75.5,21.27768607,-290,-6390,-1882,3373,52,-4606,59.80101563,64.50214844,59.76,65.7837051,-0.018984375,0.022148437,0,0.040273026
201,5,0.9,2,28.46715328,1176,-8128,1070,51,-93,-2,-367.6921397,-6956.450131,-1880,3475.230407,-290.8683042,-4776.728701,59.76,64.55,59.76,65.83,-0.041015625,0.047851563,0,0.046294896
201,5,0.9,2,29.19708029,960,-8080,986,-14,-92,-6,-522,-7458,-1878,3530,-651,-4934,59.76,64.55,59.80101563,65.92746453,0,0,0.041015625,0.097464526
201,5,0.9,2,29.9270073,907.2413793,-8113,945.9787304,-41.72096774,-98,-38.01845106,-739.0854245,-7857.519929,-1896.788724,3520.512938,-983.9014162,-5077.930323,59.76,64.55,59.82,66.00323995,0,0,0.018984375,0.075775423
201,5,0.9,2,30.65693431,888,-8146,902,-65,-104,-92,-1015.349888,-8203.072532,-1936.466337,3495.692542,-1304.067805,-5208.421197,59.76,64.55,59.82,66.0467342,0,0,0,0.043494247
201,5,0.9,2,31.38686131,1184,-8122,780,-99,-94,-151,-1248,-8486,-1972,3461,-1592,-5293,59.76,64.56884999,59.82,66.03115001,0,0.01884999,0,-0.015584186
201,5,0.9,2,32.11678832,1227.139442,-7953.363636,721.482808,-110.9253512,-82.05714286,-225.0542855,-1396,-8694,-1994,3391,-1831,-5329,59.76,64.62,59.82,65.98,0,0.05115001,0,-0.05115001
201,5,0.9,2,32.84671533,1254,-7804,696,-122,-75,-272,-1826,-9108,-1874,3227,-2115,-5356,59.73095176,64.67115001,59.85785874,65.94276444,-0.029048244,0.05115001,0.037858742,-0.037235558
201,5,0.9,2,33.57664234,1299.059927,-7862.541204,698.3630709,-150.950131,-75.35272185,-275.8620372,-2198.061328,-9638.812203,-1733.672779,3055.997504,-2267.317886,-5334.673801,59.68725898,64.69,59.88,65.88478007,-0.043692775,0.01884999,0.022141258,-0.057984376
201,5,0.9,2,34.30656934,1344.974408,-7993.082408,705.1705863,-190.6882787,-76.37211037,-277.8750256,-2522,-9960,-1636,2886,-2336,-5287,59.64387467,64.69,59.88,65.77121727,-0.043384312,0,0,-0.113562791
201,5,0.9,2,35.03649635,1366,-8128,716,-220,-78,-280,-2787.727929,-9958.596774,-1614.078193,2723.372069,-2329.010274,-5192.351444,59.64,64.74694336,59.9044043,65.76,-0.003874669,0.056943359,0.024404297,-0.011217275
201,5,0.9,2,35.76642336,1280.624454,-8277.641146,780.1748786,-231.9508744,-84.86909701,-282.2758256,-3028,-9954,-1596,2567,-2310,-5064,59.64,64.83,59.94,65.75937586,0,0.083056641,0.035595703,-0.000624143
201,5,0.9,2,36.49635036,1138,-8370,838,-244,-97,-286,-3262,-9888,-1560,2420,-2235,-4936,59.64,64.83,59.94,65.71352538,0,0,0,-0.04585048
201,5,0.9,2,37.22627737,1044.155105,-8213,834,-274.6986504,-116.2681818,-351.4328358,-3412,-10018,-1396,2197,-2087,-4662,59.64,64.83,59.9438466,65.69,0,0,0.003846602,-0.023525377
201,5,0.9,2,37.95620438,908,-8056,830,-305,-133,-414,-3571.685126,-10061.09701,-1222.140455,1993.312858,-1928.360762,-4368.132874,59.64,64.83,59.98713736,65.69,0,0,0.043290756,0
201,5,0.9,2,38.68613139,428,-8368,892,-317,-138,-410,-3720,-10078,-1088,1798,-1766,-4054,59.64,64.85847168,60.02579639,65.68072822,0,0.02847168,0.038659032,-0.009271781
201,5,0.9,2,39.41605839,577.5782313,-8254,889.244898,-351.504149,-145.0830088,-483.6636473,-3863.25283,-9893.853862,-1030.813811,1604.611031,-1588.343366,-3714.219106,59.64,64.89930185,60.06232268,65.64818237,0,0.040830173,0.036526293,-0.032545844
201,5,0.9,2,40.1459854,796,-8140,882,-410,-156,-609,-3942,-9590,-980,1416,-1444,-3346,59.64,64.85000407,60.09847849,65.6169722,0,-0.049297781,0.036155807,-0.031210173
201,5,0.9,2,40.87591241,940.4217687,-8240,853.3947417,-535.7362496,-184.7273717,-714.9704851,-3906,-9367.755459,-884.2622315,1228.317379,-1360.007062,-2927.033955,59.64,64.83,60.13676775,65.61,0,-0.020004071,0.038289259,-0.006972201
201,5,0.9,2,41.60583942,1016,-8340,794,-636,-217,-824,-3870,-9120,-802,1055,-1311,-2507,59.64,64.83,60.1766132,65.61,0,0,0.039845451,0
201,5,0.9,2,42.33576642,786,-8250.97377,598.3603604,-644.5256606,-234.5139785,-937.8127812,-3984,-8762,-774,913,-1295,-2144,59.64,64.83,60.18,65.61,0,0,0.003386802,0
201,5,0.9,2,43.06569343,556,-8088,438,-652,-249,-1047,-4332,-9914,-1084,681,-1278,-1556,59.64,64.83,60.18,65.61,0,0,0,0
201,5,0.9,2,43.79562044,800,-7872.02623,641.8555941,-676.8092554,-260.9307018,-1141.014914,-3590,-7401,1282,714,-1593.5,-953.9311128,59.64,64.86759766,60.22101563,65.71253906,0,0.037597656,0.041015625,0.102539063
201,5,0.9,2,44.52554745,1044,-7730,864,-717,-277,-1229,-2848,-4888,3648,747,-1909,-248,59.630625,64.92078125,60.24,65.7490625,-0.009375,0.053183594,0.018984375,0.036523437
201,5,0.9,2,45.25547445,992,-8498,886,-777,-326,-1315,-5879,-5904.187024,601,156.5,-1888.555723,1018.996018,59.58257813,64.96794922,60.24,65.69300781,-0.048046875,0.047167969,0,-0.056054687
201,5,0.9,2,45.98540146,926,-8380,850,-789,-348,-1431,-8910,-7610,-2446,-434,-1834,1974,59.58,64.90616935,60.24,65.69,-0.002578125,-0.061779872,0,-0.003007813
201,5,0.9,2,46.71532847,895.1343797,-8605.73195,868.4375,-815.5872083,-446.0247174,-1498.127232,-6955.697102,-9352.812976,-1068.609665,-430.1701245,-1561.344875,2124.149165,59.58,64.83069815,60.24059841,65.6913963,0,-0.075471199,0.000598412,0.001396296
201,5,0.9,2,47.44525547,877.4330584,-9124.618534,909,-858.0565429,-618.9386377,-1546.482143,-3732,-10406,892,-421,-1079,2193,59.58,64.87999593,60.28285365,65.78999186,0,0.049297781,0.042255241,0.098595563
201,5,0.9,2,48.17518248,855.515208,-9699.195851,949.5625,-911.4976061,-783.6332391,-1595.095982,-1232,-9038,1832,-399,-443,2217,59.57756908,64.89432785,60.3,65.83,-0.002430921,0.014331922,0.017146346,0.040008142
201,5,0.9,2,48.90510949,812,-10092,968,-971,-857,-1663,858,-8098,2164,-473,833,1700,59.55676601,64.84578735,60.3,65.83,-0.020803072,-0.048540501,0,0
201,5,0.9,3,49.6350365,263.973126,-10308.69073,282,-1069.724065,-729.6957308,-1774.880998,2233.138796,-8235,-521,-538.2472527,670.4946846,1528.349043,59.53095417,64.78555973,60.3244043,65.80906494,-0.025811837,-0.060227621,0.024404297,-0.020935059
201,5,0.9,3,50.3649635,-254,-10414,-404,-1138,-556,-1924,2896,-8372,-3206,-573,349,1461,59.52,64.76078613,60.36,65.75562698,-0.01095417,-0.024773597,0.035595703,-0.053437963
201,5,0.9,3,51.09489051,580,-9816,-58,-1047,-485,-2115,226,-7602,-1220,-519,-193.9946846,1889,59.52,64.81376465,60.36,65.7119548,0,0.052978516,0,-0.043672175
201,5,0.9,3,51.82481752,900,-9540,36,-1033,-549,-2209,-2444,-6832,766,-465,-578,2317,59.52,64.83,60.37131687,65.66341266,0,0.016235352,0.011316872,-0.048542143
201,5,0.9,3,52.55474453,1462,-10570,138,-1146,-735,-2213,-2048.37037,-7289.333333,484.3558035,-533.962963,-387.7037037,2295.948703,59.52,64.83,60.41555556,65.61408894,0,0,0.044238683,-0.049323721
201,5,0.9,3,53.28467153,452,-11078,290,-1180,-700,-2298,-1313.62963,-8138.666667,-94.62172633,-662.037037,-34.2962963,2250.008517,59.51667638,64.83791483,60.42,65.61,-0.003323615,0.007914827,0.004444444,-0.004088939
201,5,0.9,3,54.01459854,196,-10968,148,-1213,-548,-2494,-918,-8596,-572,-731,156,2205,59.5033452,64.87158505,60.42,65.60891909,-0.01333118,0.033670222,0,-0.001080909
201,5,0.9,3,54.74452555,500,-10732,366,-1192,-508,-2639,-1236,-8494,-808,-613,5,2170,59.4854241,64.92204262,60.42,65.52431881,-0.017921104,0.050457567,0,-0.084600282
201,5,0.9,3,55.47445255,658,-10694,576,-1241,-612,-2744,-1331.424954,-8476.867188,-734.8940838,-527.6555858,13.4375,2057.602109,59.46903297,64.97870702,60.42,65.44952624,-0.01639113,0.056664409,0,-0.074792569
201,5,0.9,3,56.20437956,130,-11381,758.9545455,-1260.45116,-591.6749743,-2914.006201,-1395.948025,-8469.8125,-557.5508902,-453.8332695,32,1868.87022,59.46029172,65.03099777,60.42,65.40846088,-0.008741256,0.052290749,0,-0.041065356
201,5,0.9,3,56.93430657,-398,-12068,856,-1278,-547,-3109,-1438.497084,-8462.851563,-338.9322514,-391.8443185,50.5625,1674.203222,59.46,65.07543012,60.42,65.36901866,-0.000291715,0.044432351,0,-0.039442229
201,5,0.9,3,57.66423358,-114,-11998,452,-1311,-466,-3286,-1468,-8446,-142,-342,59,1544,59.45794239,65.11891496,60.42,65.31437464,-0.002057613,0.043484837,0,-0.054644017
201,5,0.9,3,58.39416058,220,-10054,518,-1312,-527,-3424,-1492.48895,-8238.71875,63.27544508,-308.5252461,51.95918367,1488.722797,59.41555556,65.16734839,60.42,65.18563306,-0.042386831,0.048433426,0,-0.128741574
201,5,0.9,3,59.12408759,848.9707062,-9524.083368,137,-1289.020758,-610.2877759,-3524.272849,-1504,-8044,186,-274,39,1439,59.4,65.1690625,60.42,65.06962723,-0.015555556,0.001714112,0,-0.116005832
201,5,0.9,3,59.8540146,1656,-9326,-244,-1258,-682,-3606,-1360,-8070,80,-206.0664642,21.54081633,1357.028494,59.4,65.11300781,60.42,64.98272418,0,-0.056054688,0,-0.086903057
201,5,0.9,3,60.58394161,2505.140608,-9557.845865,-131.5479804,-1242.29643,-711.4687028,-3688.138496,-1216,-8096,-26,-134,10,1279,59.4,65.145,60.42,64.93184915,0,0.031992188,0,-0.050875027
201,5,0.9,3,61.31386861,3427.438991,-10138.13617,172.4595947,-1229.981548,-731.2323879,-3761.958137,-1591,-8014,203.7324841,-80.72976018,14,1234.464897,59.4,65.18,60.42,64.89178441,0,0.035,0,-0.040064736
201,5,0.9,3,62.04379562,4368,-10894,618,-1225,-771,-3794,-1966,-7932,482,-46,18,1194,59.4,65.18,60.42,64.85652139,0,0,0,-0.035263026
201,5,0.9,3,62.77372263,5320,-12122,1676,-1397,-986,-3700,-1859,-8044,542.0183146,-31.26146789,15,1146.654494,59.4,65.18,60.42,64.82119678,0,0,0,-0.03532461
201,5,0.9,4,63.50364964,5220.788065,-11833.64785,1799.416121,-1409.241019,-1192.536806,-3565.277042,-1752,-8156,602,-25,12,1087,59.4,65.18,60.42,64.7725109,0,0,0,-0.048685878
201,5,0.9,4,64.23357664,4949.93484,-11076.39426,1878.869885,-1416.908684,-1395.383997,-3391.247695,-1793.155644,-8134.333333,879.2492013,-31.30732484,13.36627907,977.3598356,59.4,65.18,60.42,64.66240702,0,0,0,-0.11010388
201,5,0.9,4,64.96350365,4547.614195,-10011.94355,1921.388707,-1420.872006,-1587.289189,-3160.8445,-1900,-8076,1108,-42,17,867,59.4,65.18089844,60.42,64.54356201,0,0.000898437,0,-0.118845012
201,5,0.9,4,65.69343066,4054,-8802,1934,-1422,-1761,-2857,-2246,-7856,960,-51,30,809,59.4,65.24144531,60.42,64.48932752,0,0.060546875,0,-0.054234484
201,5,0.9,4,66.42335766,2906.71194,-7045.517242,1835.213884,-1293.827751,-1945.04904,-2112.554619,-2226.530612,-7940.568528,665.5408146,-42.03350515,41.13095238,716.8315519,59.4,65.26,60.42,64.48,0,0.018554688,0,-0.009327524
201,5,0.9,4,67.15328467,1820,-4810,1534,-1060,-2048,-1431,-2174,-8136,372,-23,47,615,59.4,65.26,60.42,64.48,0,0,0,0
201,5,0.9,4,67.88321168,1552,-2442,-708,-816,-561,-1289,-1974,-8552,226,8,5,530,59.4,65.26,60.42,64.445,0,0,0,-0.035
201,5,0.9,4,68.61313869,738.8914945,-2473.87395,-159.9259259,-406.1698046,313.8305782,-1065.741204,-2014,-8443.875,265.375,45.65822785,-6.867131295,441.4735577,59.4,65.26078613,60.42,64.41078613,0,0.000786133,0,-0.034213867
201,5,0.9,4,69.34306569,-379.8875861,-2553.303456,857.9259259,103.9191913,975.1930669,-760.9346626,-2102,-8206,352,87.69620253,-15.29856115,350.7183504,59.4,65.31376465,60.42,64.46376465,0,0.052978516,0,0.052978516
201,5,0.9,4,70.0729927,-944,-2656,1406,541,1237,-374,-2190,-7968.125,438.625,121.8860759,-20.33071043,262.6039679,59.40371483,65.33,60.40748219,64.48,0.003714834,0.016235352,-0.01251781,0.016235352
201,5,0.9,4,70.80291971,-652.6744471,-2864.99284,1261.793103,847.6153446,1120.678436,199.3013098,-2230,-7860,478,136,-22,182,59.42592036,65.33,60.36229595,64.48,0.022205526,0,-0.045186241,0
201,5,0.9,4,71.53284672,-41.79333855,-3141.829753,937.5862069,1109.683321,849.9124278,966.0300536,-1952,-8026,452,134,-21,113,59.45113115,65.33,60.369375,64.48,0.025210786,0,0.00707905,0
201,5,0.9,4,72.26277372,494,-3280,596,1369,542,1781,-1969,-7959,454,143.2162162,-16.625,74.00970258,59.46,65.33,60.3955957,64.48,0.008868854,0,0.026220703,0
201,5,0.9,4,72.99270073,808,-2958,278,1638,195,2633,-1986,-7892,456,165,-13,42,59.46,65.33,60.41742188,64.48,0,0,0.021826172,0
201,5,0.9,4,73.72262774,938,-2936,2,1818,38,3107,-1528,-8250,416,215,-29,8,59.46,65.33124693,60.40444444,64.48,0,0.001246926,-0.012977431,0
201,5,0.9,4,74.45255474,907.6586716,-3310.493367,-365.1362229,2033.712555,-140.8268934,3631.367578,-1438,-8006,406,228,-25,15,59.46,65.33842762,60.36205761,64.48,0,0.007180689,-0.042386831,0
201,5,0.9,4,75.18248175,828,-3990,-590,2256,-323,4195,-1334,-7976,886,260,-59,-20,59.46,65.35109384,60.36,64.50069399,0,0.012666223,-0.002057613,0.020693992
201,5,0.9,4,75.91240876,558,-4688,-576,2457,-491,4810,-1302,-7798,908,247,-37,23,59.46,65.36821571,60.36,64.55951916,0,0.017121874,0,0.058825166
201,5,0.9,4,76.64233577,536.0177773,-5255.80302,-725.1277967,2587.139922,-581.582566,5259.818219,-1242.47619,-7814.42228,858,243.5471981,-24.0295203,39.16876501,59.46,65.38876335,60.36,64.61133205,0,0.020547642,0,0.051812895
201,5,0.9,4,77.37226277,526.0659457,-5756.623371,-1035.588927,2690.472783,-648.1246163,5638.732462,-1202,-7846,808,240,-18,56,59.46,65.41554822,60.34608398,64.62,0,0.026784869,-0.013916016,0.008667947
201,5,0.9,4,78.10218978,514,-6178,-1302,2777,-674,5975,-1237.777778,-7879.129229,813.1479677,214.4171116,-24.22222222,127.6716591,59.46,65.46434171,60.30067383,64.62,0,0.048793491,-0.045410156,0
201,5,0.9,4,78.83211679,487.5405405,-6479.243963,-1476.955767,2864.864551,-596.3311076,6280.879964,-1304.222222,-7920.940094,829.8514909,167.1103646,-35.77777778,237.9553316,59.46,65.54409396,60.3,64.62,0,0.079752245,-0.000673828,0
201,5,0.9,4,79.5620438,470,-6802,-1586,2912,-434,6542,-1340,-7976,860,124,-42,309,59.46,65.62144612,60.3,64.62,0,0.07735216,0,0
201,5,0.9,4,80.2919708,491.2592593,-7440.511604,-1624.786006,2881.912257,-197.9040907,6787.89095,-1310,-8070,1082,95,-1,326,59.46,65.66823421,60.3,64.62,0,0.046788088,0,0
201,5,0.9,4,81.02189781,530.7407407,-8264.006386,-1650.615225,2811.157847,138.1977537,7008.108509,-1156,-7752,1230,31,57,394,59.47391602,65.7122478,60.3,64.63153564,0.013916016,0.044013588,0,0.011535645
201,5,0.9,4,81.75182482,552,-8896,-1660,2729,524,7131,-566,-8198,1214,15,45,428,59.51932617,65.75563424,60.3,64.68536865,0.045410156,0.043386448,0,0.053833008
201,5,0.9,4,82.48175182,508,-9255.21131,-1621.007634,2635.916344,1013.807213,7172.456978,-1032,-8020,1290,-74,44,593,59.52,65.80906494,60.2644043,64.73906494,0.000673828,0.053430699,-0.035595703,0.053696289
201,5,0.9,4,83.21167883,464,-9500,-1532,2522,1514,7192,-1184.172886,-7987.615897,1343.196293,-143.2420839,50.08292221,677.6319493,59.52444444,65.80851852,60.24,64.75481481,0.004444444,-0.000546423,-0.024404297,0.015749873
201,5,0.9,4,83.94160584,856,-9638,-1350,2385,1881,7196,-1295.098121,-7965.936353,1390.730038,-203.5155206,65.47112588,739.8808502,59.56868313,65.59469822,60.24,64.70320302,0.044238683,-0.213820302,0,-0.051611797
201,5,0.9,4,84.67153285,1310,-10048,-1136,2158,2312,7159,-1362.974295,-7953.788632,1424.898764,-261.0311969,85.87376662,791.189326,59.58,65.59102539,60.24,64.69,0.011316872,-0.003672826,0,-0.013203018
201,5,0.9,4,85.40145985,1612,-10308,-972,1988,2493,7102,-1386,-7950,1438,-322,107,843,59.58,65.7575293,60.24,64.69,0,0.166503906,0,0
201,5,0.9,4,86.13138686,1980.427226,-10684.58412,-682.624534,1786.3905,2490.276316,7005.714658,-1382.122449,-7950.479944,1416.06414,-390.869544,133.3135643,897.99303,59.61264401,65.73205136,60.24,64.69,0.032644006,-0.025477932,0,0
201,5,0.9,4,86.86131387,2402,-11142,-332,1557,2481,6864,-1372.122449,-7952.171241,1359.492711,-465.5597788,168.9014924,951.2083588,59.64,65.67964041,60.23742188,64.69300781,0.027355994,-0.052410954,-0.002578125,0.003007813
201,5,0.9,4,87.59124088,2894,-11674,10,1286,2232,6625,-1358.44898,-7955.451091,1282.139942,-542.4900955,208.9078817,1002.628287,59.64,65.61910959,60.189375,64.7490625,0,-0.060530822,-0.048046875,0.056054688
201,5,0.9,4,88.32116788,3072.071645,-11699.2916,191.7868843,1105.423473,2002.525386,6322.347503,-1343.55102,-7960.696692,1197.860058,-618.079885,248.4768296,1052.235114,59.65898438,65.61,60.18,64.73785156,0.018984375,-0.009109589,-0.009375,-0.011210938
201,5,0.9,4,89.05109489,3188.584092,-11712.31246,324.4680665,959.1770197,1775.993305,5960.779027,-1329.877551,-7968.285245,1120.507289,-688.7485382,282.7524337,1100.011142,59.7,65.61,60.18,64.69,0.041015625,0,0,-0.047851563
201,5,0.9,4,89.7810219,3234,-11716,404,820,1508,5520,-1319.877551,-7978.593948,1063.93586,-750.9154463,306.8787913,1145.938671,59.7,65.61,60.18,64.73080933,0,0,0,0.040809328
201,5,0.9,4,90.51094891,3238,-11182,440,682,1136,4887,-1316,-7992,1042,-801,316,1190,59.70178243,65.61,60.17936556,64.76,0.001782427,0,-0.000634444,0.029190672
201,5,0.9,4,91.24087591,3198,-10654,462,616,886,4439,-1946,-8156,1064,-836,292,1230,59.74244068,65.61,60.16196844,64.76,0.04065825,0,-0.017397112,0
201,5,0.9,4,91.97080292,2391.701583,-13195,-97,535.3122956,565.8072855,3951.002531,-1907.62963,-8102.592593,942.1481481,-884.7887118,328.5555556,1216.518519,59.78287929,65.64785185,60.13555556,64.76,0.040438616,0.037851853,-0.026412889,0
201,5,0.9,4,92.70072993,1620,-15736,-656,457,272,3343,-1836.37037,-8003.407407,715.8518519,-939.7576038,396.4444444,1191.481481,59.81740189,65.75526259,60.12016195,64.76,0.034522596,0.107410734,-0.015393605,0
201,5,0.9,4,93.43065693,3368,-5044,1472,398,93,2357,-1798,-7950,594,-983,433,1178,59.84278271,65.79019895,60.12,64.76,0.025380822,0.034936358,-0.00016195,0
201,5,0.9,4,94.16058394,4288.969253,-6496.036998,194,327.6704638,187.3848705,1409.545268,-2210,-8476,648,-1008,385,1224,59.86526321,65.81540692,60.12,64.76577041,0.022480497,0.025207974,0,0.005770405
201,5,0.9,4,94.89051095,4816,-8594,-1084,246,363,522,-2268,-7700,484,-1055,423,1264,59.87862781,65.82872304,60.12,64.82019744,0.013364599,0.013316122,0,0.05442703
201,5,0.9,4,95.62043796,5006.30488,-9934.526819,-759.9259259,152.9460501,554.2096394,-224.0434412,-2238,-8488,406,-1110,497,1308,59.88,65.83,60.10285365,64.83,0.001372193,0.001276959,-0.017146346,0.009802565
201,5,0.9,4,96.35036496,5118.765403,-11070.70785,-158.0740741,46.68866189,778.2233779,-917.9661552,-1919.481818,-8581.375055,472.1843393,-1172.040323,523.035686,1373.684121,59.88,65.83,60.06059841,64.83,0,0,-0.042255241,0
201,5,0.9,4,97.08029197,5322,-11550,166,-78,998,-1747,-1626,-8648,638,-1208,550,1450,59.9155957,65.78847168,60.06,64.87152832,0.035595703,-0.04152832,-0.000598412,0.04152832
201,5,0.9,4,97.81021898,6042,-9526,-400,-244,1199,-2933,-1826,-8792,1106,-1173,636,1527,59.94,65.76,60.06,64.9,0.024404297,-0.02847168,0,0.02847168
201,5,0.9,4,98.54014599,4522,-7948,396,-304,858,-3306,-1328.222222,-9625.682099,894.962963,-1275.499135,731.5606709,1585.985804,59.94,65.76,60.06,64.9,0,0,0,0
201,5,0.9,4,99.27007299,2582,-11040,1768,-103,506,-2929,-403.7777778,-10940.72994,503.037037,-1475.776047,828.1715391,1639.465082,59.94,65.76,60.06,64.90674861,0,0,0,0.00674861
201,5,0.9,4,100,-95.78466677,-9758.222222,960.1481481,-189.9686083,-44.83922149,-2862.860156,94,-11626,292,-1613,902,1711,59.94,65.76,60.06,64.94240523,0,0,0,0.035656621
201,5,0.9,1,0,-2907.559,-7377.777778,-540.1481481,-354.7149944,-652.4751663,-2825.041189,-103.037037,-11480.81481,466.7407407,-1647.228245,941.6662106,1824.273646,59.95095417,65.7290445,60.06,64.99722873,0.01095417,-0.0309555,0,0.054823497
201,5,0.9,1,0.787401575,-4210,-6096,-1348,-453,-939,-2813,-468.962963,-11211.18519,791.2592593,-1667.842784,971.2259397,1984.15832,59.97676601,65.64913487,60.06,65.06204553,0.025811837,-0.079909635,0,0.064816802
201,5,0.9,1,1.57480315,-3560.194849,-6442.5625,-1104.875,-468.0169602,-789,-2980.1875,-666,-11066,966,-1708,1020,2186,59.99756908,65.56485048,60.06,65.17415919,0.020803072,-0.084284384,0,0.11211366
201,5,0.9,1,2.362204724,-2039.686264,-7205,-570,-478.9872979,-459,-3348,-432,-11636,-10,-1888,1163,2495,60,65.51191206,60.06,65.30465635,0.002430921,-0.052938422,0,0.130497164
201,5,0.9,1,3.149606299,-291.8345472,-7967.4375,-35.125,-485.7139867,-129,-3715.8125,-609,-12666.82373,855,-1945.238187,1077,2730.993784,60,65.47,60.06,65.4,0,-0.04191206,0,0.095343646
201,5,0.9,1,3.937007874,1040,-8314,208,-488,21,-3883,-786,-13362,1720,-1982,991,2942,60,65.42904943,60.04748219,65.45906516,0,-0.040950572,-0.01251781,0.059065159
201,5,0.9,1,4.724409449,1997.343132,-7952,164.7174057,-473,-58,-3612.553625,-740.7888403,-13349,1484,-2024.69375,1086.234499,3157.008148,60,65.37474403,60.02214126,65.50865637,0,-0.0543054,-0.025340932,0.049591209
201,5,0.9,1,5.511811024,2500,-7590,58,-458,-137,-3177,-614,-13336,1248,-2048,1201,3353,60,65.294428,60.00229595,65.53713086,0,-0.080316024,-0.019845308,0.028474494
201,5,0.9,1,6.299212598,866,-8752,-226,-472,-76,-2863,-36,-13446,1542,-1983,1227,3511,59.98101563,65.20491444,60,65.54,-0.018984375,-0.089513568,-0.00229595,0.002869138
201,5,0.9,1,7.086614173,1516,-8522.232558,-622.9300801,-341.3106942,-15.532881,-2639.526438,-224.0741012,-13052.48744,1167.13875,-1890.726378,1256.054879,3722.262498,59.94,65.11,60,65.54,-0.041015625,-0.094914436,0,0
201,5,0.9,1,7.874015748,2166,-8240,-870,-159,18,-2442,-650,-12310,776,-1833,1302,3896,59.94,65.02734443,59.97095176,65.54,0,-0.082655573,-0.029048244,0
201,5,0.9,1,8.661417323,2134.096744,-8152.50384,-519.9101231,-55.29950659,2.444444444,-2225.467462,-1506.301791,-11230.51256,750.86125,-1837.516605,1488.562866,3961.529484,59.94,64.94283967,59.92725898,65.54645996,0,-0.084504755,-0.043692775,0.006459961
201,5,0.9,1,9.448818898,2056.415711,-8093.18339,167.9575316,29.12802448,-26.44444444,-2012.353053,-2762,-10500,742,-1850,1733,4025,59.94,64.850172,59.88387467,65.60354004,0,-0.092667676,-0.043384312,0.057080078
201,5,0.9,1,10.23622047,1960,-8052,650,64,-42,-1840,-4687.624108,-12334,848.8712817,-1980.983395,1885.610221,4211.626645,59.91785874,64.79753649,59.88,65.61,-0.022141258,-0.052635503,-0.003874669,0.006459961
201,5,0.9,1,11.02362205,1795.567616,-8024.928144,835.3974991,61.84842914,-41.66517857,-1713.427941,-5976,-14168,1138,-2104,2041,4352,59.88,64.76,59.88,65.61,-0.037858742,-0.037536493,0,0
201,5,0.9,1,11.81102362,1559.615658,-8007.269461,985.9644436,56.17914439,-40.69047619,-1607.165811,-5258,-13520,2252,-1984,2262,4032,59.88,64.7191289,59.88,65.61,0,-0.040871096,0,0
201,5,0.9,1,12.5984252,1347.855872,-7987.976048,1087.049166,48.17028743,-39.12053571,-1512.820775,-4718.446806,-12195.82766,2047,-1893.814292,2485.651949,3826.084719,59.88,64.67707499,59.88,65.61,0,-0.042053912,0,0
201,5,0.9,2,13.38582677,1256,-7956,1124,39,-37,-1422,-4002,-10502,1842,-1798,2677,3593,59.88,64.63292501,59.88,65.61,0,-0.044149984,0,0
201,5,0.9,2,14.17322835,1628,-7872,872,25,-31,-1337,-1900,-8806,2582,-1649,2800,3087,59.88,64.59108486,59.88,65.63952168,0,-0.04184015,0,0.029521677
201,5,0.9,2,14.96062992,1652,-7684,676,35,-26,-1260,-1378.83792,-7016.754268,1409.879507,-1425.434842,2331.899577,2353.761449,59.88,64.55,59.88,65.69,0,-0.041084858,0,0.050478323
201,5,0.9,2,15.7480315,1737.3221,-7996.007853,715.2,24.79746835,-52,-1145.735974,-900,-5016,-638,-1113,1358,1892,59.92101563,64.4961807,59.88,65.6353125,0.041015625,-0.053819298,0,-0.0546875
201,5,0.9,2,16.53543307,1908,-8330,788,4,-78,-1035,528,-2486,-2522,-605,-135,2263,59.94,64.48,59.88,65.61,0.018984375,-0.016180702,0,-0.0253125
201,5,0.9,2,17.32283465,2326,-8356,868,-26,-72,-967,-384,-1148,-1828,-456,-477,2039,59.94,64.48,59.88,65.61,0,0,0,0
201,5,0.9,2,18.11023622,2174,-8656,582,-34,-107,-832,-161.5555556,-1240.651018,-780.9599195,-179.8254417,-525.0273611,1462.491313,59.94,64.48,59.85785874,65.6318364,0,0,-0.022141258,0.021836401
201,5,0.9,2,18.8976378,2067.693296,-8580.449423,357.1379137,-20.52464789,-96.9795082,-745.046875,251.5555556,-1475.524258,357.7422625,196.7878073,-551.7359028,584.39984,59.94,64.48,59.82,65.69,0,0,-0.037858742,0.058163599
201,5,0.9,2,19.68503937,1924,-8382,242,9,-77,-664,474,-1788,892,582,-560,-272,59.94,64.52785156,59.82,65.74422573,0,0.047851563,0,0.054225735
201,5,0.9,2,20.47244094,1432,-7708,338,62,-50,-559,-203,-2418.629897,508.428981,970.585715,-310.2295465,-1030.929815,59.9484022,64.55,59.82,65.76,0.008402198,0.022148437,0,0.015774265
201,5,0.9,2,21.25984252,1704,-7858,590,88,-49,-483,-880,-3050,78,1324,50,-1695,59.99505394,64.55,59.82,65.76,0.04665174,0,0,0
201,5,0.9,2,22.04724409,1685,-7570,615.9986938,80.95238095,-56.22857143,-441.0952381,-622,-3290,20,1569,231,-2158,60,64.56622562,59.81304616,65.77738459,0.004946061,0.016225617,-0.006953836,0.01738459
201,5,0.9,2,22.83464567,1666,-7282,634,72,-71,-403,-623.0905849,-3706.96076,-93.83172824,1877.844073,250.710076,-2674.158386,60,64.62318084,59.78863678,65.83840805,0,0.056955227,-0.024409383,0.061023458
201,5,0.9,2,23.62204724,1768,-7760,664.6388005,68.54761905,-98.77142857,-349.0510753,-626,-4232,-250,2185,257,-3168,60,64.67779865,59.76522915,65.89692712,0,0.054617803,-0.02340763,0.058519075
201,5,0.9,2,24.40944882,1870,-8238,716,67,-119,-291,-663.9608366,-4803.957345,-476.0796232,2438.701483,198.9711861,-3584.277521,60,64.68716393,59.76,65.89879707,0,0.009365278,-0.005229151,0.001869947
201,5,0.9,2,25.19685039,1542,-8184,878,71,-97,-237,-737.2743439,-5426.323875,-734.8022773,2668.542715,66.27570555,-3961.352244,60,64.66289368,59.76,65.83659475,0,-0.024270251,0,-0.06220232
201,5,0.9,2,25.98425197,1380.752643,-7933.54246,1046.784404,62.28070175,-101.8317308,-212.4942339,-796,-6028,-884,2876,-79,-4300,60,64.63277986,59.76,65.88073353,0,-0.03011381,0,0.044138783
201,5,0.9,2,26.77165354,1310,-7724,1142,43,-112,-202,-818.9862988,-6646.734366,-912.8974841,3063.7024,-230.8457319,-4597.168667,59.99932617,64.62,59.76,65.98578806,-0.000673828,-0.012779865,0,0.105054529
201,5,0.9,2,27.55905512,1395,-7980,927,-5.280701754,-127.9792448,-235,-848,-7114,-940,3225,-386,-4864,59.95391602,64.62,59.76,66.03043094,-0.045410156,0,0,0.044642884
201,5,0.9,2,28.34645669,1480,-8236,712,-43,-149,-268,-1035.885901,-7344.716299,-1025.533915,3361.869306,-523.359749,-5120.014337,59.94,64.62,59.76,66.06839491,-0.013916016,0,0,0.037963962
201,5,0.9,2,29.13385827,1046,-8204,794,-40,-172,-262,-1320,-7464,-1134,3470,-635,-5343,59.94,64.62,59.76,66.10498596,0,0,0,0.036591053
201,5,0.9,2,29.92125984,760.7712418,-8084.827554,905.8783226,-56.94656952,-168.4815876,-311.6894087,-1562,-7490,-1218,3540,-704,-5510,59.94,64.64847168,59.7844043,66.17762083,0,0.02847168,0.024404297,0.072634873
201,5,0.9,2,30.70866142,536.7189542,-7912.191555,1033.143119,-95.00425015,-160.0742863,-420.0454841,-1826.324972,-7622.387511,-1184.277415,3592.585859,-767.2716593,-5694.44591,59.94,64.69,59.82,66.27922859,0,0.04152832,0.035595703,0.101607757
201,5,0.9,2,31.49606299,446,-7824,1144,-135,-150,-526,-2092.742822,-7871.413268,-1108.777052,3635.959596,-823.6358297,-5882.468018,59.94,64.69,59.82,66.37494976,0,0,0,0.095721166
201,5,0.9,2,32.28346457,664,-8052,1224,-172,-137,-608,-2304,-8138,-1030,3654,-848,-6038,59.93862781,64.69,59.82,66.4440544,-0.001372193,0,0,0.069104647
201,5,0.9,2,33.07086614,697.5123187,-7901,1012,-203.7887977,-159,-697.4573246,-2473.078071,-8454.721142,-942.9266521,3644.520697,-829.8518519,-6172.080657,59.92526321,64.69,59.82,66.48826744,-0.013364599,0,0,0.044213039
201,5,0.9,2,33.85826772,730,-7750,800,-233,-181,-783,-2614.650147,-8793.881308,-852.0188816,3622.374728,-796.1481481,-6287.762551,59.90278271,64.69,59.84735599,66.49,-0.022480497,0,0.027355994,0.001732558
201,5,0.9,2,34.64566929,1089.044228,-8087,825.601467,-262.70799,-163.5,-852.4593644,-2674,-8966,-810,3597,-778,-6337,59.87720051,64.69,59.88,66.49079788,-0.025582205,0,0.032644006,0.000797883
201,5,0.9,2,35.43307087,1440,-8424,874,-287,-146,-919,-2597.259259,-8981.42318,-1019.481481,3569.564476,-919.250527,-6313.945008,59.83374155,64.69,59.88,66.5471382,-0.043458958,0,0,0.056340322
201,5,0.9,2,36.22047244,1466,-7804,930,-301,-161,-992,-2454.740741,-8988.776724,-1408.518519,3536.691043,-1227.389943,-6256.001128,59.82,64.69,59.88,66.56288576,-0.013741548,0,0,0.015747552
201,5,0.9,2,37.00787402,1520,-8002,862,-322,-161,-995,-2378,-9006,-1618,3501,-1529,-6180,59.82,64.69,59.88,66.50443342,0,0,0,-0.058452337
201,5,0.9,2,37.79527559,1926,-7974,780,-336,-232,-997,-2524,-9142,-1606,3461,-1763,-6054,59.82,64.69,59.90735599,66.39938612,0,0,0.027355994,-0.1050473
201,5,0.9,2,38.58267717,1802,-8140,830,-337,-270,-967,-3166,-9434,-1244,3311,-2072,-5802,59.81940159,64.69,59.94,66.25634236,-0.000598412,0,0.032644006,-0.143043763
201,5,0.9,2,39.37007874,1997.95686,-8226.476456,1002.884615,-315.5,-341.6146125,-941.286949,-3738,-9688,-1168,3178,-2202,-5585,59.77714635,64.69,59.94,66.09513739,-0.042255241,0,0,-0.161204966
201,5,0.9,2,40.15748031,2414,-8356,1140,-294,-443,-911,-4329.24999,-9854.056363,-962.4992799,2950.637285,-2173.872957,-5313.587469,59.76,64.711875,59.94664689,66.05,-0.017146346,0.021875,0.006646892,-0.045137391
201,5,0.9,2,40.94488189,3092,-9654,966,-523,-584,-857,-4907.616993,-9987.550979,-688.8051955,2649.725126,-2104.857024,-4997.071349,59.76,64.82398438,59.99185199,66.05,0,0.112109375,0.045205096,0
201,5,0.9,2,41.73228346,1768,-9454.49426,663.6257544,-496,-447,-894.3875969,-5352,-10118,-552,2336,-2018,-4632,59.76,64.83,60.02826222,66.05,0,0.006015625,0.036410229,0
201,5,0.9,2,42.51968504,444,-9072,398,-469,-310,-963,-5631.599222,-10287.69124,-617.1012821,2017.358909,-1863.562854,-4187.177646,59.75932617,64.83078613,60.06387083,66.05,-0.000673828,0.000786133,0.035608612,0
201,5,0.9,2,43.30708661,971,-8487.50574,273.828877,-547.2539267,-348,-1031.347097,-5860,-10388,-758,1698,-1733,-3655,59.71391602,64.88376465,60.10999143,66.05,-0.045410156,0.052978516,0.046120601,0
201,5,0.9,2,44.09448819,1498,-8086,218,-636,-386,-1115,-6113.334343,-9887.619666,-1008.064139,1393.536179,-1699.413404,-2998.234038,59.7,64.9,60.12,66.05,-0.013916016,0.016235352,0.01000857,0
201,5,0.9,2,44.88188976,1016,-8786,590.3147612,-647.5618628,-357.5,-1241.13844,-6296,-9096,-1332,1127,-1686,-2314,59.7,64.9,60.12,66.05,0,0,0,0
201,5,0.9,2,45.66929134,534,-9486,1136,-660,-329,-1355,-6360,-8556,-1642,934,-1745,-1729,59.7,64.9,60.14010621,65.98616935,0,0,0.020106213,-0.063830653
201,5,0.9,2,46.45669291,1162,-9486,1426,-740,-421,-1406,-6570,-7970,-1888,640,-1802,-878,59.69932617,64.9,60.18387083,65.91,-0.000673828,0,0.043764616,-0.076169347
201,5,0.9,2,47.24409449,911,-9277,1304,-819.6841148,-527.660059,-1506.352672,-6921.311986,-7975.630651,-669.4814815,542.5127717,-2260.034619,112.7788548,59.65391602,64.9,60.22999143,65.91,-0.045410156,0,0.046120601,0
201,5,0.9,2,48.03149606,660,-9068,1182,-883,-616,-1646,-7318.878215,-7992.372413,1593.481481,484.8210382,-3015.51731,1123.869565,59.64,64.91019886,60.24,65.91,-0.013916016,0.010198863,0.01000857,0
201,5,0.9,2,48.81889764,724,-9291.243791,1212,-914.0303877,-671.4314079,-1824.029299,-7508,-8020,2812,392,-3413,1828,59.64,64.96071352,60.24,65.91,0,0.050514656,0,0
201,5,0.9,2,49.60629921,788,-9630,1242,-945,-698,-2026,-4525.48681,-9300.368328,2703.276876,82.58136319,-2925.880234,2184.176244,59.64,65.00524264,60.24479155,65.89879707,0,0.044529124,0.004791547,-0.011202931
201,5,0.9,2,50.39370079,713.4031891,-9808.006075,1050.666667,-1006.759458,-692.2962963,-2229.050717,1021.915269,-11643.62861,2381.664863,-385.4857467,-1855.204911,2440.868318,59.63794239,65.04891496,60.26139544,65.86647466,-0.002057613,0.043672319,0.016603891,-0.03232241
201,5,0.9,2,51.18110236,535.6952671,-9959.995594,695.3333333,-1091.767429,-681.7037037,-2436.115049,4034,-12902,1854,-728,-787,2705,59.59555556,65.09734839,60.2848469,65.83659475,-0.042386831,0.048433426,0.023451467,-0.02987991
201,5,0.9,3,51.96850394,324,-10206,504,-1179,-676,-2629,4060,-5402,-182,-864,82,3017,59.58,65.11,60.31501881,65.83,-0.015555556,0.012651612,0.030171908,-0.006594749
201,5,0.9,3,52.75590551,-16.41192107,-11221.25558,876,-1283.834225,-707,-2788.943326,3937.435632,-7143,-2816.805382,-1169.7669,-54.45850622,2749.5,59.58,65.11,60.35797058,65.83,0,0,0.042951766,0
201,5,0.9,3,53.54330709,-254,-12070,1248,-1348,-738,-2958,3552,-8884,-4416,-1389,-342,2482,59.58,65.13593451,60.36,65.77227771,0,0.025934511,0.002029421,-0.05772229
201,5,0.9,3,54.33070866,-250,-12000.70351,1108.845815,-1283,-731,-3197.120434,-96,-8714,-870,-769,-800,3063,59.5784368,65.19011917,60.36184796,65.67737996,-0.0015632,0.054184662,0.001847961,-0.094897747
201,5,0.9,3,55.11811024,-246,-11842,824,-1218,-724,-3455,-4678,-9366,1768,-697,-597,3172,59.54131081,65.24801486,60.40210633,65.6203179,-0.037125992,0.057895685,0.04025837,-0.057062064
201,5,0.9,3,55.90551181,-596,-11514,408,-1222,-758,-3681,-7436,-7320,986,-1207,60,3080,59.49868919,65.26,60.42970365,65.6142,-0.042621616,0.011985142,0.027597321,-0.006117899
201,5,0.9,3,56.69291339,-116,-11610,278,-1155,-900,-3955,-4265,-7267.264185,-1685.96929,-1187.406988,219.0882747,3239,59.4615632,65.26,60.44401156,65.6424,-0.037125992,0,0.014307906,0.0282
201,5,0.9,3,57.48031496,-184,-12254,656,-1136,-993,-4060,-1094,-7252,-3800,-1138,277,3398,59.46,65.295,60.45466023,65.685,-0.0015632,0.035,0.010648673,0.0426
201,5,0.9,3,58.26771654,-860,-12136,780,-1093,-1192,-4354,-2101.712416,-7321.415094,-1344.666667,-903.5930118,175.5,3256.310372,59.46,65.33,60.46541763,65.7276,0,0.035,0.010757399,0.0426
201,5,0.9,3,59.05511811,186,-11720,282,-1138,-1183,-4467,-3284,-7460,1280,-699,74,2981,59.46,65.33,60.48005171,65.7558,0,0,0.014634083,0.0282
201,5,0.9,3,59.84251969,1472.436141,-11670.11208,177.1033234,-1109,-1215.882813,-4750.705476,-3510,-7648,1480,-772,156,2636,59.46,65.34180699,60.509144,65.76,0,0.01180699,0.029092287,0.0042
201,5,0.9,3,60.62992126,2628,-11654,140,-1080,-1279,-4960,-2140,-8272,758,-711,165,2321,59.46,65.39559066,60.54945579,65.76,0,0.053783672,0.040311789,0
201,5,0.9,3,61.41732283,3503.889843,-12406.37037,707.6968499,-1211.703704,-1342.305556,-4959.585114,-2132,-8028,614,-654,90,2286,59.46,65.4442754,60.55,65.76,0,0.048684742,0.000544209,0
201,5,0.9,3,62.20472441,4234.389366,-13803.62963,1813.171478,-1456.296296,-1422.631944,-4958.059117,-2223.777778,-8053.925926,503.5693971,-637.3416462,104.7777778,2138.626353,59.46,65.46921387,60.55,65.75960281,0,0.024938463,0,-0.000397192
201,5,0.9,3,62.99212598,4540,-14556,2560,-1588,-1537,-4955,-2394.222222,-8102.074074,408.5870701,-628.0896745,132.2222222,1886.997387,59.46,65.41623535,60.55,65.72192265,0,-0.052978516,0,-0.037680159
201,5,0.9,4,63.77952756,3892,-13324,2742,-1584,-1775,-4680,-2486,-8128,326,-611,147,1656,59.46,65.4,60.55,65.63438095,0,-0.016235352,0,-0.087541699
201,5,0.9,4,64.56692913,2877.770919,-11565.02995,2723,-1525.706522,-2109.020408,-4142.610356,-2386,-8062,258,-548,118,1494,59.46,65.4,60.55,65.48115838,0,0,0,-0.153222575
201,5,0.9,4,65.35433071,1440,-9072,2704,-1411,-2501,-3328,-1962,-8374,196,-426,98,1280,59.46,65.43808467,60.55,65.37324778,0,0.038084673,0,-0.107910592
201,5,0.9,4,66.14173228,-900,-4668,3010,-1238,-2930,-2006,-2255,-8094,112.9682676,-363.7750701,84.84285714,1151.471049,59.46,65.47,60.55,65.33,0,0.031915327,0,-0.043247783
201,5,0.9,4,66.92913386,4020,-3412,214,-1306,-2545,-1674,-2548,-7814,62,-316,74,1038,59.46,65.47,60.55,65.33,0,0,0,0
201,5,0.9,4,67.71653543,1236,-3622,-1122,-716,-719,-2577,-2330,-8338,230,-269,64,901,59.46,65.47,60.55,65.31924163,0,0,0,-0.010758374
201,5,0.9,4,68.50393701,1788,-4486,-1870,-341,28,-2275,-2200.406459,-8230,400.6020942,-205.3082956,50.94594595,805.8500534,59.46,65.47,60.55,65.2711588,0,0,0,-0.048082826
201,5,0.9,4,69.29133858,-250,-2350,-274,80,452,-1238,-2140,-8122,496,-149,43,715,59.46,65.505,60.55,65.17391534,0,0.035,0,-0.097243461
201,5,0.9,4,70.07874016,-1098,-2506,862,342,517,-626,-2217,-8244.087452,390.2836879,-121.1965045,67.5,586.8513279,59.46,65.53699219,60.55,65.11,0,0.031992188,0,-0.063915338
201,5,0.9,4,70.86614173,-851.3718121,-2760.994331,920.5171103,603.7548012,393.5989848,142.9967328,-2294,-8430,264,-95,92,476,59.46,65.4809375,60.55,65.11,0,-0.056054688,0,0
201,5,0.9,4,71.65354331,-420,-3022,938,868,231,950,-1926,-8570.912548,228.7163121,-43.0160026,74.46308725,410.810236,59.46,65.48327425,60.55,65.08999593,0,0.002336749,0,-0.020004071
201,5,0.9,4,72.44094488,10.19074781,-3237.319149,250.8202376,1132.793859,157.4010152,1679.637421,-1558,-8648,214,-3,53,377,59.46,65.53495126,60.55,65.04069815,0,0.051677011,0,-0.049297781
201,5,0.9,4,73.22834646,392,-3352,-650,1412,123,2401,-1582.888889,-8426.592593,308.4958996,5.633218227,45.88043748,371.7850836,59.46,65.59304579,60.53961327,65.05211785,0,0.058094529,-0.010386729,0.011419703
201,5,0.9,4,74.01574803,608,-2974,-962,1731,185,3151,-1629.111111,-8015.407407,518.1029103,11.09438689,40.88466319,368.9549911,59.46,65.66358581,60.51473031,65.08114797,0,0.070540022,-0.024882964,0.029030124
201,5,0.9,4,74.80314961,845.5180656,-3055.483978,-876.2477876,1958.283753,280.5971897,3717.4146,-1654,-7794,732,13,39,366,59.46,65.73164735,60.49351109,65.10590372,0,0.068061539,-0.021219214,0.02475575
201,5,0.9,4,75.59055118,982,-3256,-734,2142,342,4234,-1468,-8052,916,1,44,362,59.44608398,65.78829291,60.49,65.11,-0.013916016,0.056645558,-0.003511093,0.004096275
201,5,0.9,4,76.37795276,834,-3924.656344,-630.0249397,2309.607204,283.2300242,4797.774247,-1304.787801,-7854,1027.623037,-11.93554007,70.18921053,370.4857143,59.40067383,65.82951281,60.49,65.11,-0.045410156,0.041219906,0,0
201,5,0.9,4,77.16535433,686,-4784,-510,2429,178,5314,-1218,-7656,1080,-29,93,389,59.4355957,65.83,60.49,65.08080708,0.034921875,0.000487185,0,-0.029192919
201,5,0.9,4,77.95275591,740,-5322,-320,2481,74,5705,-1274,-7867,1022.873684,-63.92445055,93.50636364,423.140868,59.46,65.83408894,60.49,65.02034726,0.024404297,0.004088939,0,-0.060459823
201,5,0.9,4,78.74015748,1125.722004,-5772.358021,-334.6782007,2518.480526,-110.4601793,6172.722988,-1330,-8078,946,-104,94,467,59.46,65.88341266,60.49,64.93534462,0,0.049323721,0,-0.085002643
201,5,0.9,4,79.52755906,1468,-6178,-376,2541,-287,6606,-1013,-8015,909.7417004,-132.9195344,104.7386364,503.5197592,59.46,65.9319548,60.49,64.87530224,0,0.048542143,0,-0.060042372
201,5,0.9,4,80.31496063,1388,-6520.372644,-767.2138613,2546.068476,-396.5739504,6924.204634,-696,-7952,890,-159,115,547,59.46,65.97562698,60.49,64.83430501,0,0.043672175,0,-0.040997229
201,5,0.9,4,81.1023622,1308,-6906,-1476,2552,-450,7169,-1406,-8478,886,-184,111,620,59.46,66.02906494,60.44847168,64.78093506,0,0.053437963,-0.04152832,-0.053369956
201,5,0.9,4,81.88976378,1354,-7550,-2338,2608,-413,7331,-1278,-8433.503876,830.3006993,-213.75,114.0813953,679.9662697,59.46,66.05,60.42,64.76,0,0.020935059,-0.02847168,-0.020935059
201,5,0.9,4,82.67716535,1926.408444,-7764.46344,-1821.264307,2639.548673,-394.4895494,7557.580645,-1150,-8338,778,-252,121,744,59.46,66.05,60.42,64.76,0,0,0,0
201,5,0.9,4,83.46456693,2460,-7946,-1292,2654,-372,7722,-1302.310193,-8159.039104,854.4689922,-316.141844,135.5107099,847.1543887,59.46,66.07214844,60.40101563,64.78214844,0,0.022148438,-0.018984375,0.022148437
201,5,0.9,4,84.2519685,2373.576487,-8327.909241,-1271.530122,2619.023084,-280.7389958,7766.199442,-1548,-7962,996,-388,154,939,59.46,66.12,60.36,64.83,0,0.047851563,-0.041015625,0.047851563
201,5,0.9,4,85.03937008,2157.375197,-8795.619163,-1259.765061,2552.268391,-82.50667701,7794.821943,-1726,-7848,1150,-444,169,978,59.49497942,66.12,60.36,64.83,0.034979424,0,0,0
201,5,0.9,4,85.82677165,1876,-9100,-1256,2511,215,7805,-1478,-7888.161274,1241.411672,-507.6148076,208.3237943,991.0662106,59.52,66.1234375,60.35932617,64.83,0.025020576,0.0034375,-0.000673828,0
201,5,0.9,4,86.61417323,1420,-9196,-2200,2505,970,7712,-1230,-7996,1284,-575,246,1003,59.52,66.1875,60.34101563,64.83,0,0.0640625,-0.018310547,0
201,5,0.9,4,87.4015748,1464.870091,-9294.402755,-2083.190519,2484.984823,1770.511644,7588.666958,-1328,-8398,1276,-644,258,1030,59.53386917,66.16061752,60.31391602,64.83,0.013869173,-0.02688248,-0.027099609,0
201,5,0.9,4,88.18897638,1601.295738,-9408.600381,-1766.825483,2442.538629,2563.713032,7442.404921,-1224,-7798,1396,-675,272,1067,59.58,66.05,60.3,64.83,0.046130827,-0.11061752,-0.013916016,0
201,5,0.9,4,88.97637795,1832,-9592,-1302,2376,3178,7282,-1212,-8224,1030,-805,310,1143,59.62402609,66.00606489,60.3,64.83,0.044026091,-0.043935109,0,0
201,5,0.9,4,89.76377953,2886,-10130,-188,2178,3549,7098,-1243.384615,-8208,1072,-884.6668502,337.8248162,1211.906367,59.64,65.96829987,60.3,64.83577041,0.015973909,-0.037765018,0,0.005770405
201,5,0.9,4,90.5511811,3842,-10540,208,2030,3527,6978,-1314,-8192,1114,-952,368,1284,59.64,65.92997298,60.3,64.89019744,0,-0.038326888,0,0.05442703
201,5,0.9,4,91.33858268,5254,-10994,572,1790,3088,6637,-1503.615385,-8343.861345,1081,-1035.615488,415.3095221,1376.202891,59.64,65.8530287,60.28783788,64.9,0,-0.076944285,-0.012162122,0.009802565
201,5,0.9,4,92.12598425,6015.399977,-11269.01592,536.6766917,1544.357935,2568.068204,6193.584637,-1654,-8568,1048,-1094,479,1468,59.64,65.76118517,60.24382054,64.9,0,-0.091843532,-0.044017341,0
201,5,0.9,4,92.91338583,6528,-11398,456,1302,2037,5658,-1378,-8690,1256,-1108,570,1539,59.66729004,65.80152832,60.19813817,64.94152832,0.027290039,0.040343153,-0.045682363,0.04152832
201,5,0.9,4,93.7007874,6893.657783,-11046.5623,289.8750324,1061.871478,1520.172031,4980.316502,-1770,-10324,1940,-1120,727,1651,59.71134895,65.83,60.18,64.97,0.044058914,0.02847168,-0.018138174,0.02847168
201,5,0.9,4,94.48818898,7152,-10468,40,848,1098,4244,-468,-10362,2086,-1192,845,1680,59.7491788,65.83,60.18,64.97,0.037829844,0,0,0
201,5,0.9,4,95.27559055,7312,-10022,-280,690,858,3557,-610,-9966,490,-1475,880,1825,59.7835236,65.84955181,60.15983539,64.97,0.034344807,0.019551806,-0.020164609,0
201,5,0.9,4,96.06299213,10338.00473,-16300,-446.5900891,682.73263,920.5166667,2588.833961,66,-9694,320,-1534,862,1965,59.81649864,65.90535418,60.12053498,64.97,0.032975033,0.055802376,-0.039300412,0
201,5,0.9,4,96.8503937,13804,-22578,-658,676,1044,1360,-162,-10158,372,-1629,879,2218,59.85362624,65.95912311,60.1555957,64.92847168,0.037127608,0.053768931,0.035060724,-0.04152832
201,5,0.9,4,97.63779528,14797.2638,-19170.56866,-2186.569461,8.03648548,1251.483333,-235.8913721,52,-10092,414,-1674,911,2400,59.89234688,65.97422959,60.17923512,64.90163035,0.038720636,0.015106483,0.023639416,-0.026841327
201,5,0.9,4,98.42519685,15212,-13608,-3548,-653,1398,-2112,-22.14814815,-10513.18029,541.1514038,-1789.764401,964.3887338,2609.862356,59.93421578,65.91980256,60.16732106,64.92403066,0.041868899,-0.05442703,-0.011914057,0.022400312
201,5,0.9,4,99.21259843,12534,-9428,-2802,-326,990,-4180,-159.8518519,-11469.91613,783.4805853,-1960.303389,1026.695454,2837.291997,59.94,65.91,60.14558334,64.95461196,0.005784222,-0.009802565,-0.021737728,0.030581295
201,5,0.9,4,100,7126,-5962,-1924,-601,303,-3950,-234,-12502,1124,-2110,1065,3071,59.94,65.91,60.12,64.97,0,0,-0.025583335,0.01538804
201,5,0.9,1,0,3170.434093,-6380.75,-2038.6875,-734.8298525,-52.30885036,-3785.172621,-57.55481728,-13716.48808,2039.791721,-2234.517442,1074.064496,3304.407262,59.94,65.91,60.07539655,64.97,0,0,-0.044603454,0
201,5,0.9,1,0.81300813,-420.0585844,-7302,-2291,-841.6543133,-340.7189781,-3636.653441,236,-14592,2810,-2302,1084,3555,59.94,65.91,60.06,64.97,0,0,-0.015396546,0
201,5,0.9,1,1.62601626,-3027.521969,-8223.25,-2543.3125,-912.4016175,-534.2696168,-3529.30754,521.5789344,-14796.47543,2887.015615,-2297.943143,1195.903756,3831.558451,59.94,65.91,60.06,64.97,0,0,0,0
201,5,0.9,1,2.43902439,-4034,-8642,-2658,-938,-605,-3488,806.567245,-14926.45994,2932.841141,-2284.552954,1424.203895,4132.480128,59.95898438,65.8846875,60.06,65.03671669,0.018984375,-0.0253125,0,0.066716694
201,5,0.9,1,3.25203252,-1406.757333,-7395,-1795.224828,-515,-19.5,-3584.765907,936,-14972,2948,-2260,1659,4467,60,65.83,60.06,65.26,0.041015625,-0.0546875,0,0.223283306
201,5,0.9,1,4.06504065,3010,-6148,-324,-92,566,-3761,-22,-14444,1876,-2049,1868,4869,60,65.83,60.06,65.47644737,0,0,0,0.216447368
201,5,0.9,1,4.87804878,6636,-7634,936,-570,487,-3944,-1020.526823,-13341.11988,938.1706017,-1921.645891,2244.85443,4985.113235,60,65.83,60.054138,65.54,0,0,-0.005861999,0.063552632
201,5,0.9,1,5.691056911,6214.508787,-7638.683252,148.4277124,-612.6754386,64.89119199,-3559.045801,-1894,-12566,440,-1839,2623,5072,60,65.83,60.01212701,65.54,0,0,-0.042010991,0
201,5,0.9,1,6.504065041,5126,-7640,-1060,-626,-296,-3023,-2474,-13278,1454,-1798,2835,5201,59.99341746,65.83,59.97529412,65.54,-0.006582536,0,-0.036832892,0
201,5,0.9,1,7.317073171,1674,-7522,-1808,-410,-218,-2786,-6278,-14946,1790,-2108,3266,5426,59.97,65.83,59.94,65.54,-0.023417464,0,-0.035294118,0
201,5,0.9,1,8.130081301,1671.794618,-7918.453897,160,-366.2083916,-41.63955119,-2687.788535,-5844,-17800,2648,-2074,3391,5102,59.94658254,65.83,59.90496763,65.58416853,-0.023417464,0,-0.035032368,0.044168532
201,5,0.9,1,8.943089431,1670,-8326,2128,-333,85,-2594,-5792,-15942,2530,-1979,3488,4907,59.94,65.821217,59.86897285,65.61,-0.006582536,-0.008783001,-0.035994784,0.025831468
201,5,0.9,1,9.756097561,1601.477683,-8344.156034,1187.407407,-269.8792592,55.44444444,-2388.238933,-3907.778185,-13100.03829,2766,-1812.580993,3833.422249,4261.399254,59.94,65.72084658,59.83130143,65.61,0,-0.10037042,-0.037671422,0
201,5,0.9,2,10.56910569,1478.072175,-8354.633573,-559.4074074,-190.3196457,0.555555556,-2106.399487,-1908,-9986,3002,-1584,4109,3454,59.94,65.62361396,59.78729004,65.61,0,-0.09723262,-0.044011387,0
201,5,0.9,2,11.38211382,1412,-8358,-1500,-110,-29,-1848,-1737.379067,-7140.138607,991.1064713,-1295.994021,3234.722861,2771.362361,59.94,65.53144647,59.76,65.61,0,-0.092167489,-0.027290039,0
201,5,0.9,2,12.19512195,2297,-8163,-163,-16.30509212,-18.5,-1661.3006,-1556,-4790,-1788,-919,1786,2395,59.94,65.44744065,59.76,65.61,0,-0.084005815,0,0
201,5,0.9,2,13.00813008,3182,-7968,1174,43,-8,-1468,-92,-3364,-2982,-370,647,2631,59.94553711,65.38517434,59.75446289,65.62384277,0.005537109,-0.062266312,-0.005537109,0.013842773
201,5,0.9,2,13.82113821,2778.480888,-8100,795.5368852,46.35223836,-61.5,-1177.401803,69.52765041,-400.1611336,-2227.202886,-16.85346598,-175.5718702,2320.496505,59.99446289,65.34546017,59.70553711,65.74615723,0.048925781,-0.039714174,-0.048925781,0.122314453
201,5,0.9,2,14.63414634,2066,-8232,294,50,-115,-906,238,1680,-814,307,-626,1678,60,65.27041072,59.7,65.73416853,0.005537109,-0.075049452,-0.005537109,-0.011988694
201,5,0.9,2,15.44715447,1390,-8054,112,104,-69,-757,2428,898,776,710,-685,709,60,65.18,59.7,65.69,0,-0.090410716,0,-0.044168532
201,5,0.9,2,16.2601626,2001,-8093,798,101.8730159,-51.2515213,-592.5324879,1478,76,812,1032,-566,-45,60,65.13762225,59.7,65.69,0,-0.042377752,0,0
201,5,0.9,2,17.07317073,2612,-8132,1484,96,-44,-418,-340,-1034,-88,1459,-407,-1114,60,65.07906915,59.7,65.69,0,-0.058553099,0,0
201,5,0.9,2,17.88617886,2379.78157,-7977,1473.547511,35.12698413,-79.5,-208.3385348,-768,-1662,-530,1747,-328,-1720,60,64.98304743,59.7,65.69,0,-0.09602172,0,0
201,5,0.9,2,18.69918699,1940,-7822,1444,-22,-115,-45,-130,-2334,-494,2151,-212,-2478,60,64.92741295,59.72502058,65.69,0,-0.055634476,0.025020576,0
201,5,0.9,2,19.51219512,1293.21843,-7913.616205,1104.481798,-5.68718593,-97.5,31.23706004,-405.1119545,-3047.637731,-428.3675418,2440.754527,-245.4236453,-3185.396339,60,64.9,59.76,65.69,0,-0.027412953,0.034979424,0
201,5,0.9,2,20.32520325,854,-8084,600,13,-80,65,-802,-3670,-384,2681,-304,-3779,60,64.9,59.76,65.69,0,0,0,0
201,5,0.9,2,21.13821138,854,-8272,266,16,-98,22,-1053.888046,-4044.547929,-571,2898.41608,-362.4454723,-4187.237322,60,64.89019744,59.7515978,65.69622863,0,-0.009802565,-0.008402198,0.006228626
201,5,0.9,2,21.95121951,1072,-8268,396,38,-99,46,-1184,-4438,-758,3083,-415,-4536,60,64.83577041,59.70494606,65.74412635,0,-0.05442703,-0.04665174,0.047897719
201,5,0.9,2,22.76422764,1055.887119,-8297.6875,519.3989722,36.82845745,-106.9163024,38.37346059,-1101,-5254.867563,-705,3231.849665,-443.3584104,-4900.198865,59.99304616,64.8335316,59.70695384,65.79835671,-0.006953836,-0.002238805,0.002007774,0.054230361
201,5,0.9,2,23.57723577,1014.198984,-8363,640.6208502,33.54255319,-122.2867133,19.91256158,-1018,-6102,-652,3357,-474,-5221,59.96863678,64.84996287,59.73136322,65.86320077,-0.024409383,0.016431265,0.024409383,0.064844061
201,5,0.9,2,24.3902439,956.9113569,-8428.3125,749.0323031,28.48537234,-137.2637675,-2.754618227,-1035.862348,-6693.610758,-685.9390052,3462.926703,-537.3683083,-5464.356495,59.94522915,64.87817075,59.75477085,65.9353271,-0.02340763,0.028207883,0.02340763,0.072126336
201,5,0.9,2,25.20325203,894,-8458,834,22,-144,-23,-1083.502475,-7186.552563,-772.3224549,3557.158626,-632.6766914,-5673.398018,59.9484022,64.93856752,59.76,66.00947898,0.003173047,0.060396774,0.005229151,0.074151879
201,5,0.9,2,26.01626016,806.2770513,-8247.040698,904.4610581,4.640760441,-142.5,-37.2127324,-1152,-7416,-888,3651,-747,-5885,59.99505394,65.09439609,59.76,66.09034417,0.04665174,0.155828568,0,0.080865192
201,5,0.9,2,26.82926829,710,-7966,942,-15,-141,-56,-1304,-7442,-1092,3748,-901,-6113,60,65.08906494,59.76,66.21806672,0.004946061,-0.005331149,0,0.127722549
201,5,0.9,2,27.64227642,620.1234568,-7832.959302,944.9642857,-22.69747011,-150,-103.3809297,-1527.687918,-7399,-1116.196429,3829.972698,-1094.328589,-6302.179946,59.99953931,65.03536865,59.76,66.36061852,-0.000460695,-0.053696289,0,0.142551798
201,5,0.9,2,28.45528455,570,-7770,946,-32,-159,-178,-1794,-7356,-1124,3873,-1251,-6469,59.9625124,64.98153564,59.76,66.4484507,-0.037026908,-0.053833008,0,0.087832178
201,5,0.9,2,29.26829268,616,-8194,906,-69,-100,-286,-2108.995183,-7629.647236,-940.2481253,3873,-1333.340426,-6626.327247,59.91841996,64.97,59.76,66.53681238,-0.044092433,-0.011535645,0,0.088361681
201,5,0.9,2,30.08130081,463,-8391.024157,861.5970149,-96.19499106,-103,-375.2538138,-2386,-8118,-630,3873,-1371,-6753,59.88154076,64.97,59.76,66.62652665,-0.0368792,0,0,0.089714272
201,5,0.9,2,30.89430894,310,-8476,836,-113,-106,-448,-2536,-8596,-372,3836,-1327,-6830,59.88,65.00191533,59.76,66.69023761,-0.001540764,0.031915327,0,0.06371096
201,5,0.9,2,31.70731707,346,-8276,1074,-118,-94,-499,-2501.727273,-9207.334631,-389.2397072,3789.206374,-1330.005092,-6845.546117,59.88,65.03974892,59.76,66.72,0,0.037833596,0,0.029762387
201,5,0.9,2,32.5203252,499.436019,-8360,977,-153.7443185,-100.0443925,-607.342002,-2432,-9748,-438,3750,-1340,-6851,59.88,65.01425239,59.76,66.72,0,-0.025496536,0,0
201,5,0.9,2,33.33333333,626,-8444,880,-205,-107,-740,-2332,-10042,-670,3732,-1516,-6772,59.88,64.96304419,59.7665625,66.711,0,-0.051208198,0.0065625,-0.009
201,5,0.9,2,34.14634146,607.2479303,-8332.518519,963.4814815,-243.2755127,-108.1613202,-866.5579372,-2352.278283,-10215.22048,-867.065944,3680.04086,-1714.368631,-6657.590434,59.88,64.90909666,59.81167969,66.65058333,0,-0.053947528,0.045117187,-0.060416667
201,5,0.9,2,34.95934959,562.7180828,-8125.481481,1118.518519,-278.9300269,-108.7743538,-990.7525473,-2408.556567,-10349.32176,-1037.421861,3586.723141,-1928.100178,-6503.817472,59.88,64.85636926,59.8575,66.60707242,0,-0.0527274,0.045820312,-0.043510916
201,5,0.9,2,35.77235772,510,-8014,1202,-311,-110,-1081,-2494,-10512,-1110,3465,-2154,-6295,59.88,64.83240055,59.88,66.55697051,0,-0.023968711,0.0225,-0.050101908
201,5,0.9,2,36.58536585,429.2819172,-8055.605932,1142.888889,-335.3906585,-122.4388448,-1128.822103,-2726,-10760,-1092,3265,-2400,-5911,59.88,64.88185185,59.88,66.46649272,0,0.049451303,0,-0.090477787
201,5,0.9,2,37.39837398,332.7520697,-8166.100753,1033.111111,-357.1436358,-149.3761881,-1163.702475,-3364.479612,-10859.37556,-890.4596929,2999.362787,-2405.434348,-5548.822961,59.870625,64.9,59.889375,66.39963059,-0.009375,0.018148148,0.009375,-0.066862134
201,5,0.9,2,38.21138211,286,-8324,974,-389,-181,-1211,-3976,-10956,-704,2705,-2407,-5197,59.82257813,64.9,59.93742188,66.35870107,-0.048046875,0,0.048046875,-0.040929515
201,5,0.9,2,39.02439024,468,-8836.565914,1048.666667,-484.0318875,-217.1681321,-1323.05588,-4160,-11178,-844,2413,-2304,-4851,59.82,64.9,59.94,66.30336195,-0.002578125,0,0.002578125,-0.055339119
201,5,0.9,2,39.83739837,806,-9605.727401,1187.333333,-617.4048326,-261.9831288,-1466.250162,-4278.891299,-11299.0994,-1011.613588,2060.547552,-2198.881387,-4383.92321,59.82,64.9,59.94106538,66.27,0,0,0.00106538,-0.033361955
201,5,0.9,2,40.6504065,988,-10002,1262,-685,-312,-1537,-4406,-11354,-1192,1682,-2140,-3842,59.82,64.9,60.02078282,66.27,0,0,0.079717438,0
201,5,0.9,2,41.46341463,388,-8062,978,-645,-371,-1479,-4627.399791,-10977.49922,-1390.236556,1301.507661,-2143.859756,-3269.710532,59.82,64.91460411,60.08451993,66.25995522,0,0.014604112,0.063737113,-0.010044779
201,5,0.9,2,42.27642276,643.8823529,-8341,1085,-680.3564014,-361.5,-1542.149601,-4928,-10314,-1560,921,-2152,-2624,59.82,64.96732139,60.11870423,66.20951761,0,0.052717281,0.034184296,-0.050437614
201,5,0.9,2,43.08943089,988,-8620,1192,-749,-352,-1652,-5334,-9688,-1656,554,-2165,-1832,59.79989379,64.97,60.12,66.1627113,-0.020106213,0.002678608,0.001295773,-0.046806303
201,5,0.9,2,43.90243902,1123.395749,-8550,1125,-858.1435986,-392.6848622,-1765.932072,-5916,-8992,-1636,346,-2197,-1204,59.75612917,64.97,60.12046069,66.11523001,-0.043764616,0,0.000460695,-0.047481294
201,5,0.9,2,44.71544715,1238,-8480,1058,-934,-510,-1855,-6360,-8346,-1480,83,-2094,-393,59.71000857,64.97,60.1574876,66.06136619,-0.046120601,0,0.037026908,-0.053863817
201,5,0.9,2,45.52845528,1382,-9680,1406,-929,-1128,-1885,-5889,-15611,-2746,-365.1311117,-1746.358287,166.7105565,59.7,64.98027284,60.20158004,66.05,-0.01000857,0.010272836,0.044092433,-0.011366192
201,5,0.9,2,46.34146341,2424,-13890,1828,-943,-831,-1917,-5418,-22876,-4012,-662,-1472,748,59.7,65.03082448,60.23845924,66.05,0,0.050551643,0.0368792,0
201,5,0.9,2,47.15447154,-2098,-10880,1366,-1000,-724,-2068,-8760,-13010,-216,-459,-2031,1677,59.69478193,65.0798513,60.24,66.0237822,-0.00521807,0.049026821,0.001540764,-0.026217799
201,5,0.9,2,47.96747967,-810,-9928.614733,206.9185675,-1038.982768,-678.2495766,-2352.136326,-12004,-10894,-74,-745,-1549,3039,59.67700962,65.13503658,60.24032067,65.97121079,-0.017772313,0.055185278,0.00032067,-0.05257141
201,5,0.9,2,48.7804878,478,-9560,-648,-1075,-659,-2546,-7074,-5080,1686,-836,-931,3162,59.65265926,65.17401408,60.25027222,65.92710601,-0.024350362,0.038977498,0.009951552,-0.044104777
201,5,0.9,2,49.59349593,-32,-9930,428,-1118,-764,-2513,-4064,-12652,-954,-1091,-372,2904,59.62506758,65.18,60.27025109,65.88289399,-0.02759168,0.005985924,0.01997887,-0.044212029
201,5,0.9,2,50.40650407,18.2962963,-10872.3015,783.9113225,-1229.994624,-697.1111111,-2628.049292,-1023.625604,-10902.51852,-2180.582537,-1345.854081,27.05288796,2905.096215,59.58744396,65.18,60.29495771,65.83878921,-0.037623613,0,0.024706618,-0.044104777
201,5,0.9,3,51.2195122,111.7037037,-12104.92853,1004.341876,-1377.497312,-572.8888889,-2885.098584,1791.40942,-7653.481481,-3041.291268,-1580.815929,350.026444,2908.19243,59.54272505,65.22,60.33501672,65.7862178,-0.044718917,0.04,0.040059013,-0.05257141
201,5,0.9,3,52.03252033,162,-12718,1182,-1451,-506,-3152,3030,-5904,-3366,-1684,483,2913,59.52,65.26,60.36,65.76,-0.022725046,0.04,0.024983278,-0.026217799
201,5,0.9,3,52.84552846,-36,-12378.17745,1381.793672,-1436.374126,-546.9864328,-3400.094907,1796.5625,-5983.308511,-2819.125,-1591.5,405.96875,2955.922215,59.52,65.26,60.36,65.76,0,0,0,0
201,5,0.9,3,53.65853659,-234,-11952,1488,-1404,-629,-3637,-917,-6185.489362,-1616,-1388,236.5,3053.475542,59.50444444,65.27814815,60.36,65.72111111,-0.015555556,0.018148148,0,-0.038888889
201,5,0.9,3,54.47154472,-96,-11832,1456,-1344,-741,-3820,-3630.5625,-6456.925532,-412.875,-1184.5,67.03125,3175.541098,59.46205761,65.32759945,60.36,65.61514403,-0.042386831,0.049451303,0,-0.105967078
201,5,0.9,3,55.28455285,-640,-13124,1298,-1309,-825,-4088,-4864,-6744,134,-1092,-10,3292,59.46,65.33,60.39,65.65,-0.002057613,0.002400549,0.03,0.034855967
201,5,0.9,3,56.09756098,-1164,-13624,818,-1383,-750,-4277,-4416.987517,-7185.255319,-1252,-1123,9.379032258,3429.903987,59.46,65.33,60.42,65.68426013,0,0,0.03,0.034260126
201,5,0.9,3,56.91056911,-959.4821407,-13165.11111,684.6195014,-1362.259259,-861.8428459,-4511.634678,-3616,-7488,-2638,-1154,44,3516,59.46,65.33,60.42,65.57129452,0,0,0,-0.112965601
201,5,0.9,3,57.72357724,-449.630948,-12312.88889,602.1986396,-1323.740741,-1084.796803,-4771.582558,-2621.012483,-7358,-688,-908,81.11170848,3399.268236,59.46,65.33,60.42,65.54,0,0,0,-0.031294525
201,5,0.9,3,58.53658537,210,-11854,574,-1303,-1250,-5020,-1980,-7228,1262,-662,114,3155,59.46,65.33,60.42,65.54,0,0,0,0
201,5,0.9,3,59.3495935,1309.745633,-12393.95859,673.2391595,-1315.305422,-1306.514718,-5289.868597,-2770,-7974,1040,-706,131,2774,59.46,65.33,60.45808467,65.54,0,0,0.038084673,0
201,5,0.9,3,60.16260163,2847.711511,-13573.91718,970.2560967,-1352.055288,-1344.780196,-5549.712076,-2542.504587,-7997.230631,567.6584568,-660.6096872,127.1976744,2491.712572,59.46,65.32825991,60.49,65.53820244,0,-0.001740086,0.031915327,-0.001797558
201,5,0.9,3,60.97560976,4230,-14734,1464,-1413,-1408,-5666,-2222,-8004,234,-583,119,2294,59.46,65.28586638,60.49,65.49517671,0,-0.042393538,0,-0.043025733
201,5,0.9,3,61.78861789,5214,-15644,3508,-1662,-1591,-5374,-2074,-7596,702,-516,105,2196,59.46,65.23076199,60.49,65.44985501,0,-0.05510439,0,-0.045321702
201,5,0.9,3,62.60162602,4763.377888,-15099.19821,3342,-1748.603292,-1837.20466,-5112.540758,-2553,-7675.8,629.4929577,-524.5,111.5,2010.105164,59.46,65.18063356,60.49,65.40554432,0,-0.050128425,0,-0.044310691
201,5,0.9,4,63.41463415,3818,-13858,3176,-1783,-2124,-4786,-3032,-7824,504,-533,118,1776,59.46,65.21808467,60.49,65.31247674,0,0.037451112,0,-0.093067582
201,5,0.9,4,64.22764228,2332,-11336,3518,-1663,-2444,-4134,-2771,-8029.2,363.5070423,-483.2979198,86.5,1534.040625,59.46,65.30932221,60.49,65.26,0,0.091237533,0,-0.052476735
201,5,0.9,4,65.04065041,-412.0378888,-6713.618773,3951.05108,-1532.273129,-3014.708049,-2692.196602,-2510,-8166,276,-400,55,1292,59.46,65.38712599,60.49,65.26,0,0.077803786,0,0
201,5,0.9,4,65.85365854,-2274,-3584,4212,-1412,-3398,-1663,-2563.925926,-8078.888889,354.2962963,-326.2667103,55,1067.739416,59.46,65.4,60.49,65.24811288,0,0.012874008,0,-0.011887123
201,5,0.9,4,66.66666667,3806,-5808,-402,-1324,-1189,-2619,-2664.074074,-7917.111111,499.7037037,-251.9945399,55,854.6097803,59.46,65.4,60.49,65.18635372,0,0,0,-0.061759159
201,5,0.9,4,67.4796748,1134,-3062,-518,-932,-386,-2401,-2718,-7830,578,-196,55,667,59.49264401,65.4,60.49,65.09145981,0.032644006,0,0,-0.094893903
201,5,0.9,4,68.29268293,-422,-2702,-362,-270,699,-1657,-2575.307692,-7943,576,-164.2847683,51,509.0710918,59.52,65.4020795,60.49,65.04,0.027355994,0.002079498,0,-0.051459815
201,5,0.9,4,69.10569106,-1273.548449,-2360.521739,672.2122538,22.99677885,1102.259731,-793.5581864,-2298,-8056,572,-136,47,374,59.52,65.44951412,60.49,65.04,0,0.047434625,0,0
201,5,0.9,4,69.91869919,-1660,-2174,1582,258,1290,84,-1863.49277,-7928,568.0107914,-95.86346071,53,244.4077081,59.50285365,65.50066477,60.49,65.0543619,-0.017146346,0.051150651,0,0.014361897
201,5,0.9,4,70.73170732,-946.3757998,-2730,1248.678026,566.9577791,1331.732497,889.3340849,-1548,-7800,560,-59,59,158,59.46059841,65.5395368,60.49,65.10565439,-0.042255241,0.038872025,0,0.051292489
201,5,0.9,4,71.54471545,-18,-3286,726,856,1363,1647,-1530,-8104,498,-37,27,133,59.46,65.54,60.49,65.15629147,-0.000598412,0.000463201,0,0.050637085
201,5,0.9,4,72.35772358,314.7134887,-3206.659981,297.3872133,1069.896446,1417.583985,2343.188534,-1094,-7988,594,10,72,93,59.46,65.54709655,60.49,65.17699219,0,0.007096546,0,0.020700716
201,5,0.9,4,73.17073171,546.4248447,-3029.542185,-101.8619489,1254.516695,1481.249476,3004.31067,-1236,-7958.744681,548,3,53.5,129.2657658,59.46,65.7013859,60.49,65.1209375,0,0.154289353,0,-0.056054688
201,5,0.9,4,73.98373984,816,-2846,-278,1446,1536,3674,-1378,-7948,502,-4,35,176,59.46,65.82501452,60.49,65.12327425,0,0.12362862,0,0.002336749
201,5,0.9,4,74.79674797,1208,-2682,-276,1661,1574,4372,-1209.135776,-8025.209302,767,-2.5,54.5,190.1748283,59.46,65.90592357,60.49,65.17495126,0,0.080909051,0,0.051677011
201,5,0.9,4,75.6097561,1251.931699,-3187.275794,-507.7737819,1809.501918,1508.813262,4980.349418,-1004,-8108,1032,-1,74,204,59.47038673,65.93956867,60.50038673,65.23304579,0.010386729,0.033645103,0.010386729,0.058094529
201,5,0.9,4,76.42276423,1266,-3996,-758,1933,1374,5508,-955.570928,-8113.483469,971.659919,-10.07505774,55,233.4199882,59.49526969,65.9644106,60.52526969,65.30358581,0.024882964,0.024841927,0.024882964,0.070540022
201,5,0.9,4,77.23577236,1206,-4568,-780,2044,1171,5924,-914,-8120,870,-30,36,277,59.51648891,65.97815294,60.54648891,65.37164735,0.021219214,0.013742343,0.021219214,0.068061539
201,5,0.9,4,78.04878049,1316,-5242,-678,2166,803,6476,-836,-8486,786,-66,68,343,59.50608398,65.96376465,60.55,65.42829291,-0.010404923,-0.014388293,0.003511093,0.056645558
201,5,0.9,4,78.86178862,1475.037314,-5737.608021,-813.6752412,2261.519114,446.8863382,6904.489948,-846.0821323,-8476.146457,804.7230321,-97.01367013,82.69331101,419.8628181,59.46067383,65.91078613,60.55,65.46951281,-0.045410156,-0.052978516,0,0.041219906
201,5,0.9,4,79.67479675,1586,-6156,-1026,2356,139,7275,-874.1785361,-8448.36574,853.0087464,-123.9932333,93.78669761,503.4350327,59.46,65.97359649,60.55,65.40640351,-0.000673828,0.06281036,0,-0.063109308
201,5,0.9,4,80.48780488,1604.929054,-6552.418496,-1201.324759,2482.409142,-106.3764531,7621.23978,-917.0642222,-8405.327719,919.03207,-149.2992769,102.3871665,592.0041566,59.46,66.0777936,60.54671108,65.30347263,0,0.104197111,-0.00328892,-0.102930878
201,5,0.9,4,81.30081301,1612,-6874,-1300,2597,-274,7917,-971.514201,-8349.702265,990.96793,-175.2923881,109.6017245,683.8577025,59.46,66.17218418,60.5072929,65.21460926,0,0.094390575,-0.039418184,-0.088863367
201,5,0.9,4,82.11382114,1294,-7078,-1184,2663,-344,8136,-1034.303483,-8284.159248,1056.991254,-204.3331541,116.5373783,777.2831832,59.46,66.23410951,60.46044764,65.11859051,0,0.061925327,-0.046845261,-0.096018753
201,5,0.9,4,82.92682927,968.5496365,-7485.0499,-1192.288828,2692.45122,-276.111558,8373.337291,-1102.207079,-8211.368536,1105.276968,-238.7821624,124.3011345,870.5681114,59.46,66.26961272,60.42048772,65.04092464,0,0.03550321,-0.039959918,-0.077665869
201,5,0.9,4,83.7398374,674,-8000,-1220,2705,-99,8568,-1172,-8134,1124,-281,134,962,59.4955957,66.27,60.42,65.04,0.035595703,0.000387284,-0.000487717,-0.00092464
201,5,0.9,4,84.55284553,454,-8510,-1748,2672,486,8669,-1290.415647,-7985.308127,992,-350.6575728,145.0647766,1057.772226,59.52,66.27659475,60.42,65.0360798,0.024404297,0.006594749,0,-0.0039202
201,5,0.9,4,85.36585366,651.8372681,-8803.807169,-1763.494912,2651.040321,1089.441799,8663.5,-1374,-7876,860,-428,159,1144,59.52,66.33879707,60.42,64.98972906,0,0.06220232,0,-0.04635074
201,5,0.9,4,86.17886179,1016,-9088,-1768,2625,1669,8658,-1125,-7926,1019.032787,-485.2541332,185.816336,1203.01444,59.52,66.35,60.40101563,64.93790534,0,0.011202931,-0.018984375,-0.051823723
201,5,0.9,4,86.99186992,1406,-9540,-1502,2549,2174,8707,-876,-7976,1216,-536,210,1260,59.52,66.35,60.36,64.9,0,0,-0.041015625,-0.037905336
201,5,0.9,4,87.80487805,1980,-10196,-968,2373,2859,8540,-902,-7906,1268,-582,218,1336,59.54625476,66.17510288,60.36,64.94080933,0.026254764,-0.174897119,0,0.040809328
201,5,0.9,4,88.61788618,2634,-10504,-744,2223,3236,8353,-1263.043689,-8130,1268,-677.8358557,253.9583949,1389.620284,59.58798878,66.05,60.36,64.97,0.041734014,-0.125102881,0,0.029190672
201,5,0.9,4,89.43089431,4046,-10936,-528,1952,3569,8079,-1602,-8354,1268,-790,309,1446,59.63327512,66.05,60.36,64.97,0.045286338,0,0,0
201,5,0.9,4,90.24390244,4890,-11080,-460,1765,3601,7794,-1256,-7824,1200,-877,365,1537,59.64,66.00570313,60.35704808,64.97610068,0.006724885,-0.044296875,-0.002951917,0.006100676
201,5,0.9,4,91.05691057,6007.488624,-11490.89088,-169.7634974,1518.208871,3353.147745,7358.013635,-1528,-8232,1056,-965,378,1598,59.64,65.91,60.34155923,65.00340958,0,-0.095703125,-0.015488855,0.027308902
201,5,0.9,4,91.8699187,7088,-11868,142,1227,2876,6788,-1487.037037,-8102.37037,1091.777778,-1045.816841,416.6432454,1672.105846,59.66904824,65.99833706,60.31804012,65.03188719,0.029048244,0.088337065,-0.023519107,0.028477614
201,5,0.9,4,92.68292683,7980.010076,-11981.24895,275.6796482,881.5281911,2296.054618,6041.328796,-1410.962963,-7861.62963,1158.222222,-1124.491414,477.5571416,1753.945958,59.7111261,66.02969727,60.28941003,65.04,0.042077861,0.031360201,-0.02863009,0.008112809
201,5,0.9,4,93.49593496,8520,-12028,336,522,1628,5165,-1370,-7732,1194,-1212,535,1835,59.74912737,65.85030273,60.24437106,65.04,0.038001265,-0.179394531,-0.045038966,0
201,5,0.9,4,94.30894309,8652.762376,-11337.70835,109.8525896,165.7775209,931.8495391,4228.78597,-1794,-8046,1008,-1320,579,1912,59.78530211,65.87431421,60.24,65.06352538,0.03617474,0.024011472,-0.004371065,0.023525377
201,5,0.9,4,95.12195122,8704,-10118,-300,-110,336,3241,-1647,-8135.308191,921.3823529,-1398.673302,632.4244427,2018.155016,59.81745223,65.9753933,60.24,65.10937586,0.032150122,0.101079098,0,0.04585048
201,5,0.9,4,95.93495935,8280,-8665.291647,-616.7434349,-271.5909091,-17.11214433,2227.906351,-1500,-8238,884,-1455,715,2129,59.83842745,66.01053763,60.2044043,65.11,0.02097522,0.035144327,-0.035595703,0.000624143
201,5,0.9,4,96.74796748,7856,-7742,-1170,-347,-318,1229,-1919,-10205.02237,1367,-1480.119738,1037.122069,2223.629514,59.85448076,66.03622144,60.18,65.10354004,0.016053312,0.025683814,-0.024404297,-0.006459961
201,5,0.9,4,97.56097561,8486,-32768,-4474,-342,-650,311,-2338,-12162,1850,-1513,1304,2307,59.87291646,66.04920384,60.18,65.04645996,0.018435695,0.012982399,0,-0.057080078
201,5,0.9,4,98.37398374,7082.37037,-27077.77778,-2633.259259,-443.8888889,-599.0179581,-1296.055755,1410,-12256,1022,-1735,1192,2374,59.90826431,66.05,60.15785874,65.04,0.035347849,0.000796156,-0.022141258,-0.006459961
201,5,0.9,4,99.18699187,4475.62963,-16510.22222,785.2592593,-633.1111111,-462.7025828,-3145.972322,649,-12066,408.0993413,-1858.234685,1064.29276,2788.721637,59.94,66.05,60.12,65.04,0.031735692,0,-0.037858742,0
201,5,0.9,4,100,3072,-10820,2626,-735,-266,-4031,-112,-11876,100,-1970,990,3154,59.94,66.05,60.12,65.04,0,0,0,0
201,5,0.9,1,0,4258,-15286,-318,-475,176,-4018,174,-12602,748,-2126,1149,3158,59.94336017,66.06236515,60.12,65.04,0.003360172,0.012365154,0,0
201,5,0.9,1,0.819672131,-4112,-7776,3118,-215,-680,-4376,226,-14210,1066,-2341,1115,3467,59.98308938,66.1789945,60.12,65.04,0.039729206,0.116629351,0,0
201,5,0.9,1,1.639344262,-3584,-4912,-1224,-991,-622,-4759,69,-14217.44237,1695.352104,-2369.539198,1121.914894,3832.619038,60.02750971,66.1746875,60.12,65.05529918,0.044420334,-0.004307004,0,0.01529918
201,5,0.9,1,2.459016393,-1732,-6272,-2152,-1165,-76,-4465,-88,-14224,2172,-2387,1140,4186,60.06,66.12,60.12,65.11,0.032490288,-0.0546875,0,0.05470082
201,5,0.9,1,3.278688525,830,-9726,-870,-642,449,-5078,190.0358362,-15156.47382,2240.659167,-2416.87234,1243.812341,4465.72152,60.01898438,66.1746875,60.10752,65.17133173,-0.041015625,0.0546875,-0.01248,0.061331732
201,5,0.9,1,4.098360656,2952,-5452,-1934,-794,248,-5042,516,-16082,2266,-2435,1350,4716,60.00757202,66.18990398,60.07776,65.2471482,-0.011412359,0.015216478,-0.02976,0.075816466
201,5,0.9,1,4.918032787,10196,-6500,-916,-870,408,-5812,578,-16044,1588,-2392,1367,4949,60.05242798,66.13009602,60.04224,65.3212988,0.044855967,-0.059807956,-0.03552,0.074150601
201,5,0.9,1,5.737704918,7004.910627,-6304,-1339,-826.9503942,101,-5077.789823,420.9401768,-15132.14627,1711,-2264.719992,1444.376651,5095.980938,60.06,66.12,60.01248,65.37763293,0.007572016,-0.010096022,-0.02976,0.056334134
201,5,0.9,1,6.557377049,3528,-6108,-1762,-749,-206,-4122,4,-13898,1834,-2138,1602,5241,60.06,66.12,60,65.4,0,0,-0.01248,0.022367067
201,5,0.9,1,7.37704918,3020.916794,-6335.552,-1641.29465,-670.9312737,-201.4899117,-3738.948051,-1476,-13338,1572,-2096,1963,5463,60.06,66.08209466,60,65.4,0,-0.037905336,0,0
201,5,0.9,1,8.196721311,2638.401393,-6878.176,-1342.68395,-580.9957133,-190.1897351,-3450.395303,-3498,-12810,1680,-2191,2286,5560,60.0684022,66.03485712,60,65.40980256,0.008402198,-0.047237541,0,0.009802565
201,5,0.9,1,9.016393443,2373.627596,-7525.824,-961.4259246,-486.1945161,-175.4446026,-3217.768529,-6466,-16444,1722,-2385,2485,5688,60.11505394,65.99688498,60,65.46422959,0.04665174,-0.037972138,0,0.05442703
201,5,0.9,1,9.836065574,2219.769199,-8068.448,-592.7785996,-393.5288792,-160.5996468,-3002.494503,-7142,-17872,2394,-2211,2695,5426,60.12,65.89436728,59.98168269,65.47,0.004946061,-0.102517704,-0.018317313,0.005770405
201,5,0.9,1,10.6557377,2170,-8296,-332,-310,-149,-2766,-5862,-15032,2980,-2095,3273,4990,60.11946502,65.74980959,59.93649864,65.47,-0.000534979,-0.144557689,-0.045184051,0
201,5,0.9,1,11.47540984,2252.222222,-8260,-161.7307301,-229.3221779,-141.3453071,-2507.492929,-2354.894608,-12515.85203,3698.037531,-1873.650827,3825.449713,3945.926925,60.08016461,65.66539152,59.9035236,65.47,-0.039300412,-0.08441807,-0.032975033,0
201,5,0.9,2,12.29508197,2457.777778,-8170,-4.060418787,-144.9999934,-135.365358,-2252.194016,288,-10158,4126,-1567,4128,2968,60.06,65.58416457,59.8691788,65.47446045,-0.020164609,-0.08122695,-0.034344807,0.004460449
201,5,0.9,2,13.1147541,2725,-8053,136.5793718,-63.72006484,-129.9505027,-2000.549264,95.09684058,-8083.33514,2491.62963,-1188.69496,3448.544876,2624.884904,60.06,65.49634567,59.83134895,65.52487549,0,-0.087818901,-0.037829844,0.050415039
201,5,0.9,2,13.93442623,2992.222222,-7936,255.7570798,7.830989227,-123.9910912,-1753.004676,-358.6952077,-6083.5382,-543.6296296,-732.4543089,1967.311974,2398.347572,60.04186183,65.40335884,59.78729004,65.57035326,-0.018138174,-0.09298683,-0.044058914,0.045477772
201,5,0.9,2,14.75409836,3197.777778,-7846,349.0411432,62.96655033,-116.3774737,-1510.006254,-886,-3508,-2178,-241,520,2139,59.99617946,65.32463406,59.76,65.61481305,-0.045682363,-0.078724782,-0.027290039,0.044459788
201,5,0.9,2,15.57377049,3280,-7810,412,95,-106,-1272,-1514,760,-1436,300,-598,1766,59.95216212,65.28640814,59.76,65.67334916,-0.044017341,-0.038225914,0,0.058536115
201,5,0.9,2,16.39344262,3231.229481,-7863.000762,444.6974136,111.5633803,-78.96767875,-1046.366346,-904,2606,-546,474,-941,1186,59.94,65.23127598,59.7515978,65.69,-0.012162122,-0.055132166,-0.008402198,0.016650837
201,5,0.9,2,17.21311475,3170,-7958,476,119,-58,-819,102.0950038,1930.371962,529.7562141,745.7067506,-1103.500959,435.6455189,59.94,65.13522619,59.70494606,65.69,0,-0.096049787,-0.04665174,0
201,5,0.9,2,18.03278689,3154.641134,-8072.591238,552.9019608,99.66666667,-60.95150633,-551.8834796,762,498,1168,1089,-1174,-447,59.94,65.05296617,59.7,65.69,0,-0.082260019,-0.004946061,0
201,5,0.9,2,18.85245902,3145.671997,-8197.40673,650.1176471,60.33333333,-69.01412378,-274.2071048,-628,-1826,488,1503,-928,-1494,59.94,64.97015891,59.7,65.69,0,-0.082807259,0,0
201,5,0.9,2,19.67213115,3124,-8256,698,29,-81,-55,-1430,-2488,52,1800,-729,-2156,59.94,64.91158607,59.74101563,65.69,0,-0.058572846,0.041015625,0
201,5,0.9,2,20.49180328,2818,-7864,626,15,-111,79,-1214,-2843.458274,-235.3869705,2145.042764,-483.8543605,-2833.642173,59.949375,64.9,59.76,65.6965652,0.009375,-0.011586067,0.018984375,0.006565199
201,5,0.9,2,21.31147541,2453.977664,-7853.975751,579.8323164,28.77399744,-116.5434783,192.1300403,-998,-3186,-374,2517,-265,-3507,59.99742188,64.9,59.76,65.74806541,0.048046875,0,0,0.051500207
201,5,0.9,2,22.13114754,2052.814312,-7847.867334,545.4353573,61.31399317,-120.2608696,300.5322581,-1468,-3764,-310,2907,-137,-4154,60,64.9,59.76,65.83027041,0.002578125,0,0,0.082205007
201,5,0.9,2,22.95081967,1683.243804,-7844.82525,507.8207196,99.44699232,-122.3478261,381.9183468,-1560,-3886,-344,3137,-116,-4517,60,64.90187764,59.76,65.915444,0,0.001877643,0,0.085173585
201,5,0.9,2,23.7704918,1414,-7844,452,130,-123,414,-1654.756098,-4058.932384,-603.0447749,3347.434208,-54.79237288,-4894.862805,60,65.04015046,59.76,65.95734582,0,0.138272814,0,0.041901819
201,5,0.9,2,24.59016393,1276.260571,-7884,349.2164548,146.7336719,-93.63157895,368.4036249,-1708,-4316,-926,3536,-8,-5257,60,65.12334266,59.76,65.99547333,0,0.0831922,0,0.038127512
201,5,0.9,2,25.40983607,1124,-7924,180,168,-61,276,-1418.148148,-4903.294043,-1108.276803,3704.815207,-19.99099099,-5597.36215,60,65.14251814,59.76,66.03482788,0,0.019175482,0,0.039354554
201,5,0.9,2,26.2295082,720,-7262,-154,234,-57,145,-879.8518519,-5755.494576,-1254.249513,3857.877394,-53.98198198,-5915.750801,60,65.15644527,59.76,66.09744649,0,0.013927126,0,0.062618602
201,5,0.9,2,27.04918033,968,-7958,984,169,-34,90,-590,-6466,-1314,3980,-107,-6162,60,65.18496461,59.76,66.1891209,0,0.028519345,0,0.091674416
201,5,0.9,2,27.86885246,1142,-8438,1320,99,-108,38,-654,-6882,-1230,4063,-268,-6316,60,65.2992189,59.76,66.29570291,0,0.114254288,0,0.106582008
201,5,0.9,2,28.68852459,726,-8072,1122,46,-115,1,-934,-7190,-1286,4167,-541,-6530,60,65.30170782,59.74868313,66.40889728,0,0.00248892,-0.011316872,0.113194372
201,5,0.9,2,29.50819672,831.9655776,-8249,1065.264197,-10.14694122,-122.5759535,-78.98466091,-1210.006723,-7156,-1479.780403,4210.086123,-798.5330842,-6724.206629,60,65.19111111,59.70444444,66.53613089,0,-0.110596708,-0.044238683,0.127233609
201,5,0.9,2,30.32786885,976,-8426,1010,-66,-135,-171,-1446,-7122,-1696,4244,-1029,-6883,59.9755957,65.18,59.7244043,66.6441745,-0.024404297,-0.011111111,0.019959852,0.108043605
201,5,0.9,2,31.14754098,1034,-8208,834,-118,-182,-237,-1602,-7262,-1794,4287,-1211,-6984,59.94,65.18089844,59.75932617,66.72576402,-0.035595703,0.000898437,0.034921875,0.081589522
201,5,0.9,2,31.96721311,784.0740741,-8260.888889,618.2471858,-140.6230937,-178.6616617,-334.6790031,-1903.622857,-7639.536974,-1524,4244.356362,-1363.311064,-7120.20283,59.94,65.24144531,59.71391602,66.76946119,0,0.060546875,-0.045410156,0.043697172
201,5,0.9,2,32.78688525,319.9259259,-8359.111111,402.234704,-156.2004357,-168.8788789,-458.3840384,-2196,-8176,-1254,4166,-1534,-7204,59.92748219,65.24952686,59.7,66.81798306,-0.01251781,0.008081546,-0.013916016,0.048521875
201,5,0.9,2,33.60655738,70,-8412,304,-162,-153,-598,-2330.784682,-8856.209511,-1285.111111,4086.736369,-1817.016532,-7177.346395,59.88229595,65.19238717,59.7,66.86787979,-0.045186241,-0.057139685,0,0.049896724
201,5,0.9,2,34.42622951,680,-8344,608,-154,-95,-766,-2428.306971,-9601.58616,-1342.888889,3995.089703,-2170.675442,-7112.248345,59.90735599,65.10821612,59.7,66.87,0.025060045,-0.084171053,0,0.002120212
201,5,0.9,2,35.24590164,1216.5176,-8244.183085,738.8247965,-183.0625,-100.9332192,-859.0516304,-2566,-10030,-1374,3896,-2479,-7031,59.93992605,65.03727718,59.70039703,66.86955021,0.032570057,-0.07093894,0.00039703,-0.000449793
201,5,0.9,2,36.06557377,1739.015644,-8123.107186,828.0778103,-247,-116.8219178,-936.1014493,-2848,-10122,-1292,3785,-2693,-6914,59.93228638,65.01282417,59.73371591,66.82865638,-0.007639674,-0.024453014,0.033318879,-0.040893823
201,5,0.9,2,36.8852459,2135.005867,-8020.977695,900.791919,-310.9375,-139.7996575,-988.6005435,-3433.966999,-10163.62887,-1388.25,3587.750532,-2926.885135,-6724.147051,59.91638484,64.99360866,59.77755932,66.76077739,-0.015901538,-0.019215508,0.043843415,-0.067878997
201,5,0.9,2,37.70491803,2292,-7978,982,-340,-167,-1008,-4070,-10212,-1556,3331,-3061,-6483,59.89834134,64.97990453,59.81821757,66.66214132,-0.018043502,-0.013704126,0.04065825,-0.09863607
201,5,0.9,2,38.52459016,2132,-8316,1076,-333,-213,-987,-4450.008414,-10411.91005,-1747.75,3047.685069,-3059.176948,-6217.894058,59.88427577,64.97198566,59.82,66.52924857,-0.014065568,-0.007918868,0.001782427,-0.132892746
201,5,0.9,2,39.3442623,1969.141176,-8452,1035,-355,-239.6210575,-958.2035573,-4836,-10714,-1868,2708,-3053,-5891,59.88,64.97069815,59.8236149,66.39748566,-0.004275769,-0.001287517,0.003614899,-0.13176291
201,5,0.9,2,40.16393443,1878,-8588,994,-377,-278,-915,-5446,-11024,-1262,2259,-2904,-5420,59.88,64.99000407,59.90324038,66.29011155,0,0.019305923,0.079625483,-0.107374113
201,5,0.9,2,40.98360656,2020,-8926,1308,-301,-513,-822,-5774,-11254,-1082,1954,-2776,-5033,59.88,65.01999593,59.96057806,66.27,0,0.029991858,0.057337676,-0.020111548
201,5,0.9,2,41.80327869,2192,-9620,1140,-382,-534,-845,-6243.516285,-11181.46202,-1208.216393,1576.210957,-2616.05061,-4448.820811,59.88,65.03930185,59.99318543,66.27,0,0.019305923,0.032607368,0
201,5,0.9,2,42.62295082,1850.010085,-9504.375,1168.4375,-473.3231892,-522.4375,-915.7250971,-6694,-11010,-1466,1189,-2500,-3731,59.85989379,65.04,60.02801991,66.27,-0.020106213,0.000698148,0.034834485,0
201,5,0.9,2,43.44262295,1076.860226,-9250,1231,-571.1399835,-497,-1045.023186,-6978.971366,-10437.53798,-1949.783607,852.6112618,-2468.816537,-2904.031313,59.81612917,65.04078613,60.06387083,66.2694873,-0.043764616,0.000786133,0.035850918,-0.000512695
201,5,0.9,2,44.26229508,251.7802537,-8995.625,1293.5625,-671.3867861,-471.5625,-1212.059681,-7228,-9964,-2302,530,-2447,-2020,59.77000857,65.09376465,60.10999143,66.227264,-0.046120601,0.052978516,0.046120601,-0.042223307
201,5,0.9,2,45.08196721,-246,-8880,1322,-770,-460,-1396,-7441.64147,-12025,-2264.008119,161.1495771,-2422.633179,-1219.070269,59.76,65.11,60.12,66.17512792,-0.01000857,0.016235352,0.01000857,-0.052136077
201,5,0.9,2,45.90163934,-433.9301128,-9656,1283.684211,-868.6695496,-539.5035461,-1635.559769,-7758,-14086,-2156,-117,-2397,-317,59.76,65.11,60.12,66.12447966,0,0,0,-0.050648258
201,5,0.9,2,46.72131148,-518,-10432,1210,-962,-650,-1909,-10008.85759,-13023.40011,-459.9325087,-202.9068707,-2374.780231,1016.005232,59.73922654,65.12211785,60.14204965,66.07513206,-0.020773458,0.012117851,0.022049654,-0.049347599
201,5,0.9,2,47.54098361,-149.3915858,-10037,1124.803978,-1039.945939,-697.2905715,-2157.641312,-12024,-10488,1270,-304,-2332,2461,59.68946061,65.15114797,60.18377943,66.05,-0.049765927,0.029030124,0.041729779,-0.025132064
201,5,0.9,2,48.36065574,332,-9642,1018,-1117,-742,-2409,-9850,-4478,1392,-891,-1579,3665,59.64702219,65.17590372,60.22987972,66.05,-0.042438429,0.02475575,0.04610029,0
201,5,0.9,2,49.18032787,496,-10354,884,-1207,-812,-2675,-3044.822974,-6663,1203.893133,-881.5,-740.298545,3627.78098,59.64,65.18,60.24,66.03980114,-0.007022186,0.004096275,0.010120277,-0.010198863
201,5,0.9,2,50,70,-10964,840,-1250,-835,-2814,2858,-8848,722,-872,-15,3539,59.64,65.18,60.24,65.98928648,0,0,0,-0.050514656
201,5,0.9,3,50.81967213,60,-11388,676,-1305,-855,-3064,3878.88977,-7318,-1812.893133,-1411.5,530.7032691,3229.21902,59.61727495,65.2109589,60.24,65.93651255,-0.022725046,0.030958904,0,-0.052773928
201,5,0.9,3,51.63934426,-182.70799,-11817.27845,1028,-1394.521186,-893.5309278,-3234.155304,4266,-5788,-4054,-1951,807,2971,59.57277291,65.26971752,60.2415632,65.91,-0.044502045,0.058758619,0.0015632,-0.026512554
201,5,0.9,3,52.45901639,-540,-12278,1380,-1453,-920,-3408,4102,-9770,-3450,-1494,152,3005,59.53753488,65.3200885,60.27868919,65.91,-0.035238028,0.050370976,0.037125992,0
201,5,0.9,3,53.27868852,-756,-12824,1196,-1425,-898,-3678,-782,-8638,540,-923,-571,3724,59.49868919,65.33,60.31753488,65.89330959,-0.038845688,0.009911501,0.038845688,-0.016690413
201,5,0.9,3,54.09836066,-860,-13072,982,-1342,-884,-4026,-5078,-6622,2098,-1112,-464,3944,59.4615632,65.33,60.35277291,65.83306127,-0.037125992,0,0.035238028,-0.060248321
201,5,0.9,3,54.91803279,-1296,-13024,1126,-1368,-925,-4231,-11232,-7964,-666,-1581,-1,4551,59.46,65.365,60.38919803,65.85727273,-0.0015632,0.035,0.036425122,0.024211461
201,5,0.9,3,55.73770492,-1194.456763,-12823.90653,973.8607314,-1288.666667,-1122.065927,-4498.968694,-4308,-6080,-2634,-1761,515,3984,59.46,65.4,60.42919171,65.92575994,0,0.035,0.039993676,0.068487216
201,5,0.9,3,56.55737705,-924.9135255,-12526.73104,675.943685,-1141.333333,-1433.917991,-4808.181394,-3861.152452,-6199.717109,-2302.864,-1662.296915,491.3185825,3614.668622,59.46,65.4,60.48209135,66.03289773,0,0,0.052899639,0.107137784
201,5,0.9,3,57.37704918,-540,-12374,470,-1062,-1629,-5123,-3585.604658,-6495.711328,-1513.232,-1420.850746,431.4757476,3304.297285,59.44285365,65.37999593,60.49,66.05,-0.017146346,-0.020004071,0.007908654,0.017102273
201,5,0.9,3,58.19672131,277.1908222,-12424.78245,397.8233438,-1117.904608,-1679.877896,-5443.751646,-3420.480638,-6873.246992,-570.768,-1118.65612,352.2736214,3039.991636,59.40059841,65.33069815,60.49,66.05,-0.042255241,-0.049297781,0,0
201,5,0.9,3,59.01639344,1590,-12594,366,-1240,-1701,-5750,-3304.904412,-7237.588437,218.864,-837.7076619,270.5143301,2808.857325,59.41038673,65.3542357,60.52264401,66.05,0.009788317,0.023537553,0.032644006,0
201,5,0.9,3,59.83606557,3514,-15658,758,-1457,-1548,-6003,-3178,-7494,550,-660,203,2598,59.43526969,65.41229595,60.55,66.0485239,0.024882964,0.058060248,0.027355994,-0.001476102
201,5,0.9,3,60.6557377,6120,-17670,1974,-1630,-1741,-5817,-3016.728668,-7626.759022,405.3333333,-578.1239545,140.0187522,2430.935643,59.45648891,65.46180745,60.55,66.00903418,0.021219214,0.0495115,0,-0.039489721
201,5,0.9,3,61.47540984,6480,-16874,2572,-1673,-1924,-5754,-2877.364334,-7730.939333,136.6666667,-517.1961678,80.45382056,2288.549251,59.46,65.47,60.54606323,65.93877261,0.003511093,0.00819255,-0.003936768,-0.070261565
201,5,0.9,4,62.29508197,3938,-14442,3324,-1612,-2444,-5208,-2818,-7878,-8,-458,54,2094,59.46,65.47,60.52280884,65.80857854,0,0,-0.023254395,-0.130194071
201,5,0.9,4,63.1147541,1303.661975,-10926.60927,3304.625669,-1495.461613,-2985.302272,-4114.876444,-3646,-8178,90,-395,68,1725,59.46,65.47,60.49735718,65.6722054,0,0,-0.02545166,-0.136373145
201,5,0.9,4,63.93442623,-1160.724568,-7167.193526,3235.473561,-1356.953029,-3492.59558,-2793.882666,-3295,-8167,-28,-321.1679025,54,1494.82465,59.46,65.47,60.49444444,65.59548713,0,0,-0.002912733,-0.076718268
201,5,0.9,4,64.75409836,-2250,-5414,3100,-1290,-3717,-2152,-2944,-8156,-146,-250,40,1293,59.46,65.47,60.53868313,65.56177337,0,0,0.044238683,-0.033713753
201,5,0.9,4,65.57377049,3560,-5782,-504,-1344,-2496,-2398,-3012,-8195,143.7434312,-192.5458522,43.28246753,1056.70419,59.46,65.45376465,60.55,65.50382461,0,-0.016235352,0.011316872,-0.057948762
201,5,0.9,4,66.39344262,3039.210881,-5613.794386,-1058.454076,-886.4503311,-1355.215118,-2248.502996,-3080,-8234,496,-143,52,828,59.46,65.40078613,60.55,65.40871403,0,-0.052978516,0,-0.09511058
201,5,0.9,4,67.21311475,1994,-5220,-1244,-216,-383,-1916,-2718,-8232,580,-102,83,635,59.46,65.4,60.55,65.32083169,0,-0.000786133,0,-0.087882342
201,5,0.9,4,68.03278689,255.5929969,-4179.89439,-606.2921384,168.2753506,446.614086,-1237.397427,-2476.774008,-8071.108911,490.8924798,-85.44876205,66.64377682,473.1824791,59.46,65.4,60.55,65.24804706,0,0,0,-0.072784631
201,5,0.9,4,68.85245902,-1182,-2932,470,468,917,-395,-2360,-7912,314,-69,46,315,59.46,65.4,60.55,65.19801606,0,0,0,-0.050030999
201,5,0.9,4,69.67213115,-1466,-2206,1364,682,968,253,-2514,-8254,78,-29,40,137,59.47714635,65.37999593,60.55,65.14863981,0.017146346,-0.020004071,0,-0.049376248
201,5,0.9,4,70.49180328,-749.0142477,-2585,1037.818464,935.5313439,1031.95125,1061.635175,-2169.991012,-8053,54.52130682,13.69068582,33.3352469,70.03692462,59.51940159,65.33069815,60.55,65.11044788,0.042255241,-0.049297781,0,-0.038191937
201,5,0.9,4,71.31147541,170,-2964,526,1189,1112,1884,-1774,-7852,46,63,23,22,59.52,65.38067975,60.55,65.19161001,0.000598412,0.049981601,0,0.081162139
201,5,0.9,4,72.13114754,520.8643331,-2953.375,142.4946735,1414.198241,1242.123511,2589.859331,-1708,-8598,44,130,-8,-30,59.51742188,65.49655943,60.55257813,65.2565625,-0.002578125,0.115879678,0.002578125,0.064952486
201,5,0.9,4,72.95081967,784.0812307,-2930,-233.7403477,1628.314582,1413.121949,3247.152583,-1548.353361,-8278,229,175.0961538,18,-66.20991254,59.469375,65.68917984,60.600625,65.1925,-0.048046875,0.192620413,0.048046875,-0.0640625
201,5,0.9,4,73.7704918,987.757513,-2906.625,-555.105195,1828.523632,1568.309413,3887.119544,-1344,-7958,414,197,44,-84,59.46,65.86086834,60.61,65.19684348,-0.009375,0.171688502,0.009375,0.004343476
201,5,0.9,4,74.59016393,1160,-2896,-774,2012,1651,4541,-1117.625344,-7999.108475,414,196.2169118,24.85294118,-23.19130435,59.46,65.97864325,60.61,65.25531149,0,0.11777491,0,0.05846801
201,5,0.9,4,75.40983607,1296,-3262,-886,2170,1669,5217,-982,-8092,414,194,2,64,59.46,65.95205136,60.61,65.29732325,0,-0.026591887,0,0.042011767
201,5,0.9,4,76.2295082,1206,-3716,-960,2268,1586,5654,-1241,-8345.891525,539.5793991,165.9146672,-4.352941176,112.9731225,59.46,65.89964041,60.61,65.33950601,0,-0.052410954,0,0.04218276
201,5,0.9,4,77.04918033,1208,-4450,-886,2408,1309,6250,-1500,-8548,718,129,-7,146,59.46,65.83910959,60.61,65.39224529,0,-0.060530822,0,0.052739279
201,5,0.9,4,77.86885246,1277.387227,-5129.675293,-831.3742515,2471.862559,975.5277547,6699.959882,-1351.244378,-8370.567207,825.4206009,110.6447368,7.659090909,158.7422935,59.46,65.87286587,60.60885,65.4,0,0.033756277,-0.001149995,0.007754708
201,5,0.9,4,78.68852459,1390,-5734,-804,2520,625,7101,-1090,-8104,880,99,36,174,59.46,65.97850397,60.60228447,65.4,0,0.105638103,-0.006565534,0
201,5,0.9,4,79.50819672,1501.497222,-6266.39465,-977.5170604,2570.017391,253.789088,7509.804655,-846,-7950,710,94,71,255,59.46,65.98,60.59084671,65.4,0,0.001496031,-0.011437756,0
201,5,0.9,4,80.32786885,1568,-6664,-1244,2619,-38,7885,-873.1030303,-8233,739.1176471,69.6376567,57,350.4129697,59.46494606,65.98892956,60.57562005,65.4,0.004946061,0.008929556,-0.015226661,0
201,5,0.9,4,81.14754098,1421.349876,-6861.974244,-1433.293036,2671.183852,-203.9561258,8207.617348,-932,-8516,798,34,43,439,59.5115978,66.08638529,60.5576878,65.4,0.04665174,0.09745573,-0.017932251,0
201,5,0.9,4,81.96721311,1174,-7044,-1566,2722,-281,8488,-1069.89697,-8178,904.8823529,4.756030072,70,497.2505997,59.50285365,66.14929236,60.52795851,65.4,-0.008744148,0.062907076,-0.029729295,0
201,5,0.9,4,82.78688525,954.3438741,-7313.489695,-1617.822931,2778.436198,-191.8024316,8734.635328,-1176,-7840,982,-28,97,557,59.46059841,66.19396426,60.49049053,65.4,-0.042255241,0.044671901,-0.037467978,0
201,5,0.9,4,83.60655738,762,-7680,-1660,2811,11,8934,-1072,-8000.664003,848,-69.27601104,88,653.9810527,59.46,66.29982025,60.49,65.33053996,-0.000598412,0.105855985,-0.00049053,-0.069460036
201,5,0.9,4,84.42622951,611.30625,-8330.201334,-1712.585093,2803.085526,445.0193892,9101.458571,-968,-8212,714,-123,79,762,59.46,66.35,60.49,65.24091512,0,0.050179752,0,-0.08962484
201,5,0.9,4,85.24590164,534,-9026,-1784,2787,1035,9188,-1117.851852,-8308.893624,822.2207688,-200.4171074,87.94364501,858.2772217,59.46,66.35,60.49,65.18678465,0,0,0,-0.054130469
201,5,0.9,4,86.06557377,602,-9470,-1930,2764,1598,9167,-1396.148148,-8382.669034,1073.108204,-301.115184,111.9984011,950.798379,59.46,66.33363856,60.46785156,65.18,0,-0.016361444,-0.022148438,-0.006784655
201,5,0.9,4,86.8852459,1142,-10108,-1716,2698,2411,9005,-1546,-8412,1356,-415,147,1036,59.46,66.27,60.42,65.18,0,-0.063638556,-0.047851562,0
201,5,0.9,4,87.70491803,1968.237922,-10732.30622,-1351.80252,2558.047487,3084.361377,8777.763464,-1348,-7784,1668,-552,228,1110,59.48930999,66.16456095,60.42,65.18,0.029309994,-0.105439054,0,0
201,5,0.9,4,88.52459016,3030,-11308,-918,2364,3458,8494,-1139.090983,-8067,1689.456753,-673.0244668,275.403921,1176.293071,59.53054112,66.12659475,60.41505394,65.18,0.041231126,-0.037966197,-0.004946061,0
201,5,0.9,4,89.3442623,4421.961262,-11779.56242,-496.448171,2142.690969,3499.289211,8156.184022,-954,-8350,1696,-786,317,1252,59.56562958,66.18879707,60.3684022,65.18,0.035088457,0.06220232,-0.04665174,0
201,5,0.9,4,90.16393443,5894,-12236,-80,1875,3514,7728,-795.5204403,-8347.368421,1573.053571,-889.6445733,363.9274871,1367.487478,59.60239451,66.08292969,60.36,65.2053125,0.036764932,-0.105867382,-0.008402198,0.0253125
201,5,0.9,4,90.98360656,7178.166303,-12885.26465,399.6370463,1529.756657,3208.035764,7133.85764,-712,-8340,1390,-998,420,1509,59.64,65.83,60.36,65.26,0.03760549,-0.252929687,0,0.0546875
201,5,0.9,4,91.80327869,8268,-13288,680,1155,2644,6389,-746.1393443,-8247.631579,1273.495724,-1144.537602,513.4948219,1667.962091,59.67547734,65.86983988,60.32214126,65.26,0.035477343,0.039839881,-0.037858742,0
201,5,0.9,4,92.62295082,9146.099134,-12901.83011,630.0901857,787.4880529,2007.254628,5464.145234,-782,-8160,1192,-1278,604,1834,59.71212701,65.9247067,60.3,65.25340525,0.036649667,0.054866816,-0.022141258,-0.006594749
201,5,0.9,4,93.44262295,9742,-12108,512,473,1375,4470,-784,-8292,1156,-1353,651,1988,59.754138,65.97335857,60.3,65.19120293,0.042010991,0.048651876,0,-0.06220232
201,5,0.9,4,94.26229508,9984,-10934,240,274,938,3567,-593.9502655,-9233.388355,1121.796196,-1444.317881,814.20178,2063.22051,59.76,65.93253906,60.28613083,65.18,0.005861999,-0.04081951,-0.013869173,-0.011202931
201,5,0.9,4,95.08196721,10216,-9318,-32,126,378,2054,-198.1227532,-10763.47196,1082.067282,-1542.349859,1046.712001,2116.842402,59.76,65.83,60.24,65.18,0,-0.102539063,-0.046130827,0
201,5,0.9,4,95.90163934,10536,-11074,-356,77,36,1188,142,-11566,1010,-1626,1165,2205,59.79184016,65.88047832,60.19597391,65.13583147,0.031840159,0.050478323,-0.044026091,-0.044168532
201,5,0.9,4,96.72131148,11936,-14298,-484,76,147,-470,380.277382,-11257,225.7064456,-1679.27872,1074.5,2515.096723,59.82694207,65.91,60.18,65.11645996,0.035101915,0.029521677,-0.015973909,-0.019371507
201,5,0.9,4,97.54098361,10370,-4634,3748,-57,32,-858,506,-10948,-510,-1741,984,2870,59.84475048,65.91,60.18,65.17354004,0.017808406,0,0,0.057080078
201,5,0.9,4,98.36065574,6906.224753,-5251.8125,3580.236932,-182.2664804,-127.4683682,-1475.735925,52,-11102.18334,-100.8296245,-1894.79703,1108.5,3039.756307,59.85998785,65.91,60.17628819,65.17232037,0.015237369,0,-0.003711808,-0.001219665
201,5,0.9,4,99.18032787,1933.644225,-6611,3114.965153,-302.6530937,-316.2328398,-2258.925057,-402,-11518,324,-2087,1233,3185,59.88,65.91,60.16066054,65.145,0.020012152,0,-0.015627657,-0.027320375
201,5,0.9,4,100,-2529.758416,-7970.1875,2409.210797,-429.4631601,-476.6308915,-2988.151661,-12,-13098,342,-2243,1139,3356,59.92207175,65.85952168,60.13765535,65.11767963,0.04207175,-0.050478323,-0.02300519,-0.027320375
201,5,0.9,1,0,-4466,-8588,1520,-574,-551,-3444,260.1776699,-14171.15907,1469.316508,-2343.741345,992.4542667,3609.62545,59.94,65.84121727,60.10949516,65.11,0.01792825,-0.018304402,-0.028160185,-0.007679625
201,5,0.9,1,0.81300813,-3687.65195,-6853,-1019.482577,-803.292,-561.033449,-3627.144167,394,-14694,2876,-2392,898,3914,59.94,65.95478007,60.06439071,65.11,0,0.113562791,-0.04510445,0
201,5,0.9,1,1.62601626,-2158,-5118,-3078,-954,-565,-3773,360,-14202,3290,-2380,1176,4250,59.96214126,66.01974592,60.06,65.12816687,0.022141258,0.064965854,-0.00439071,0.018166871
201,5,0.9,1,2.43902439,-298.9357889,-7160,-1792.898882,-477,-237,-3994.86099,438,-14882,2468,-2352,1269,4584,60,66.05,60.06,65.18,0.037858742,0.030254081,0,0.051833129
201,5,0.9,1,3.25203252,2148,-9202,-506,0,91,-4131,1220,-15038,1296,-2279,1288,4879,60,66.00214844,60.06,65.24104452,0,-0.047851563,0,0.061044521
201,5,0.9,1,4.06504065,5476,-7390,-504,-514,-66,-4116,932.9779696,-14788.59259,954.5622025,-2166.474574,1354.115669,5071.711954,60.00757202,65.98883402,60.05242798,65.24990398,0.007572016,-0.013314418,-0.007572016,0.008859458
201,5,0.9,1,4.87804878,5736,-4472,-60,-637,179,-4839,204.6226058,-14325.40741,741.5033235,-2043.070621,1477.043286,5223.80395,60.05242798,66.04116598,60.00757202,65.19009602,0.044855967,0.052331962,-0.044855967,-0.059807956
201,5,0.9,1,5.691056911,5618,-6408,-1888,-550,-155,-3762,-766,-14076,668,-1985,1631,5318,60.06,66.03400391,60,65.23413663,0.007572016,-0.007162075,-0.007572016,0.044040611
201,5,0.9,1,6.504065041,2966,-7412,-1270,-311,-224,-3276,-2989.881865,-15024.37037,927.4070856,-2041.259259,1852.386181,5373.476776,60.06,65.98,60,65.4,0,-0.054003906,0,0.165863367
201,5,0.9,1,7.317073171,1955.449269,-7583.040905,90.24316018,-197.7996189,-74,-3122.112544,-6045.71871,-16785.62963,1513.925282,-2145.740741,2147.409931,5414.182833,60.06,65.93661971,59.99205825,65.51719859,0,-0.043380286,-0.007941746,0.117198587
201,5,0.9,1,8.130081301,1544,-7696,1060,-126,76,-2995,-7586,-17734,2140,-2202,2445,5430,60.06,65.89250517,59.97246276,65.62459461,0,-0.044114548,-0.019595492,0.107396028
201,5,0.9,1,8.943089431,1591.225854,-7893.377072,772.8125,-72.10169342,69.44765081,-2779.83875,-6478,-15936,2742,-2193,2723,5241,60.06,65.84680439,59.94755814,65.68597366,0,-0.045700779,-0.024904617,0.061379042
201,5,0.9,1,9.756097561,1719.268945,-8125.668508,141,-26.73578422,52.6937355,-2509.731401,-4026,-12778,2898,-1991,3268,4539,60.06,65.77870644,59.91800751,65.69,0,-0.068097951,-0.029550636,0.004026343
201,5,0.9,2,10.56910569,1907.677563,-8319.125691,-490.8125,7.998017087,30.09295244,-2211.758351,-3140.406227,-9868.052344,1879.111111,-1722.124911,3044.292723,3803.39472,60.06,65.69,59.88,65.69,0,-0.088706435,-0.038007508,0
201,5,0.9,2,11.38211382,2136,-8400,-778,30,6,-1913,-2583.18531,-7129.803688,-13.11111111,-1399.201012,2529.91878,3068.566293,60.01898438,65.59568657,59.84239451,65.73785156,-0.041015625,-0.094313435,-0.03760549,0.047851563
201,5,0.9,2,12.19512195,2684.365527,-8255,436,43.73404255,-22.41829632,-1616.902372,-2022,-4726,-1032,-1032,1960,2439,60,65.5073043,59.80308938,65.75019744,-0.018984375,-0.088382265,-0.039305132,0.012345873
201,5,0.9,2,13.00813008,3112,-8110,1650,50,-58,-1297,-1193.579294,-2326.000349,-706.3703704,-555.5169962,1229.858998,1979.047631,60,65.42872715,59.76336017,65.69577041,0,-0.078577154,-0.039729206,-0.05442703
201,5,0.9,2,13.82113821,2324,-8202,1154,15,-102,-931,-361.1229805,-155.1112858,-101.6296296,-11.5333269,417.9294991,1585.610906,60.0244043,65.29862153,59.76,65.74694336,0.024404297,-0.130105615,-0.003360172,0.051172954
201,5,0.9,2,14.63414634,2379,-8228.2144,1182.125,-0.269359228,-96.6875,-708.9233878,18,790,224,430,34,1112,60.05940159,65.17396128,59.76,65.83,0.034997291,-0.124660256,0,0.083056641
201,5,0.9,2,15.44715447,2500,-8241.415375,1244,-9.536120732,-85,-535.8755639,10.37835605,577.7488147,214.0751918,700.6484496,104.8800273,451.2781901,60.01714635,65.13506467,59.76,65.83,-0.042255241,-0.03889661,0,0
201,5,0.9,2,16.2601626,2621,-8254.408663,1305.875,-19.03482187,-73.3125,-384.1399581,-15.90995456,37.05318491,181.0392725,917.9694638,257.5378324,-349.4916612,60,65.08165278,59.76,65.83,-0.017146346,-0.053411889,0,0
201,5,0.9,2,17.07317073,2676,-8280,1334,-35,-68,-226,-66,-688,120,1191,402,-1206,60,64.99073762,59.76,65.83,0,-0.090915158,0,0
201,5,0.9,2,17.88617886,2362,-8364,1142,-75,-101,-59,-780,-1972,-450,1632,505,-2134,60,64.93622156,59.76,65.85715609,0,-0.054516058,0,0.027156089
201,5,0.9,2,18.69918699,1886,-8324,610,-93,-65,83,-750.9375,-2463.476563,-536.7156208,2011.977102,419.0357265,-2772.241264,60,64.89554271,59.76,65.91312724,0,-0.040678855,0,0.05597115
201,5,0.9,2,19.51219512,1346,-8318,450,-79,-83,148,-687,-2784.744006,-590.6995995,2367.357015,217.5952707,-3305.129335,60,64.84418914,59.76,65.943425,0,-0.051353564,0,0.030297759
201,5,0.9,2,20.32520325,930.5391796,-8229.442731,360.7512953,-57.88437279,-62.5,147.7254098,-623.0625,-3042.639446,-622.3337784,2681.558421,-14.64282042,-3767.202738,60,64.83118346,59.76,65.96764034,0,-0.013005686,0,0.024215346
201,5,0.9,2,21.13821138,638,-8146,320,-32,-42,147,-594,-3344,-642,2938,-193,-4193,60,64.84362106,59.76,65.97961563,0,0.012437608,0,0.011975281
201,5,0.9,2,21.95121951,502.3505102,-8177.62963,355.2663205,3.124568461,-56.25925926,142.4389384,-824,-3714,-654,3121,-296,-4566,60,64.86745407,59.76,65.98,0,0.023833007,0,0.000384375
201,5,0.9,2,22.76422764,410.6528277,-8236.37037,442.9770854,41.40217675,-82.74074074,131.1456364,-1012,-4306,-758,3353,-383,-5032,60,64.9,59.76,65.98,0,0.032545929,0,0
201,5,0.9,2,23.57723577,260,-8268,556,62,-97,114,-1058,-4798,-936,3498,-433,-5304,60,65.00076678,59.76,66.06078835,0,0.100766782,0,0.080788352
201,5,0.9,2,24.3902439,-170,-7846,734,65,-70,68,-1096,-5640,-990,3697,-537,-5670,60,65.04,59.76,66.14143243,0,0.039233218,0,0.080644073
201,5,0.9,2,25.20325203,-58.60107705,-8048.390561,720,57.00498008,-90.35661765,-14.51044103,-1084,-6289.402783,-868,3844.631674,-634.9438452,-5945.059926,60,65.04,59.76,66.18695863,0,0,0,0.0455262
201,5,0.9,2,26.01626016,178,-8306,706,42,-126,-133,-1072,-6632,-746,3973,-727,-6196,60,64.94425402,59.76,66.29477055,0,-0.09574598,0,0.107811927
201,5,0.9,2,26.82926829,564,-8384,950,25,-159,-311,-1102,-6648.058253,-834.3809524,4098.988441,-802.4115538,-6464.062074,60,64.83,59.76,66.43078012,0,-0.11425402,0,0.136009565
201,5,0.9,2,27.64227642,529.9375,-8379.300982,1097.250639,-15.94242175,-151.96875,-467.5773605,-1132,-6662,-1002,4211,-891,-6724,60,64.83,59.76,66.52890163,0,0,0,0.098121508
201,5,0.9,2,28.45528455,455,-8365.969285,1222.445013,-79.67817713,-136.5,-616.2596268,-1124,-6711.269404,-1249.619048,4307.244956,-1057.695447,-6970.046067,59.98868313,64.85279162,59.75832,66.60919493,-0.011316872,0.02279162,-0.00168,0.080293305
201,5,0.9,2,29.26829268,380.0625,-8345.152945,1309.41688,-148.5748439,-121.03125,-744.5620797,-1116,-6808,-1418,4383,-1269,-7189,59.94444444,64.95212277,59.74704,66.6906871,-0.044238683,0.099331146,-0.01128,0.081492166
201,5,0.9,2,30.08130081,346,-8318,1342,-205,-114,-840,-1316,-7054,-1378,4430,-1486,-7359,59.94,64.99397831,59.73,66.76752304,-0.004444444,0.041855543,-0.01704,0.076835945
201,5,0.9,2,30.89430894,424.7411712,-8247.894924,1304.850064,-253.2127081,-123.3333333,-907.7102783,-1640.66891,-7622.597866,-1103.226301,4387.550725,-1710.500393,-7537.587236,59.94,65.02173655,59.71296,66.82915161,0,0.02775824,-0.01704,0.061628571
201,5,0.9,2,31.70731707,599.4823424,-8120.860005,1213.92235,-296.3285763,-140.6666667,-961.3022805,-2054.377539,-8508.801142,-658.8353728,4287.101449,-1923.170618,-7705.571396,59.94,65.03778232,59.70168,66.86502166,0,0.016045774,-0.01128,0.035870046
201,5,0.9,2,32.5203252,778,-7972,1100,-315,-150,-1001,-2466,-9526,-426,4169,-2039,-7780,59.92748219,65.02967026,59.7,66.87,-0.01251781,-0.00811206,-0.00168,0.004978341
201,5,0.9,2,33.33333333,920.9827712,-7737.982259,887.2103448,-311.5588235,-146.8571429,-1033.706311,-2844,-10756,-526,4024,-2064,-7689,59.88229595,64.97909017,59.7,66.87,-0.045186241,-0.050580094,0,0
201,5,0.9,2,34.14634146,1088,-7578,732,-306,-142,-1050,-3107.176353,-11913.48722,-469.9936061,3896.715643,-2122.035714,-7508.240018,59.88,64.92885203,59.72735599,66.84605658,-0.00229595,-0.050238144,0.027355994,-0.023943415
201,5,0.9,2,34.95934959,1410.433411,-7775,776,-300.9411765,-138.1428571,-1007.784331,-3420,-12544,-370,3749,-2164,-7255,59.88,64.90157227,59.76,66.78332225,0,-0.02727976,0.032644006,-0.062734337
201,5,0.9,2,35.77235772,1634,-7972,820,-298,-136,-931,-4136,-12426,-272,3502,-2109,-6926,59.88,65.0075293,59.76,66.68952697,0,0.105957031,0,-0.093795274
201,5,0.9,2,36.58536585,1600,-7253,305,-408.994659,-207.5,-831.215669,-4597.467365,-11774.05682,-419.9310345,3230.056445,-1895.859286,-6596.650861,59.86748219,65.04,59.76874188,66.59210154,-0.01251781,0.032470703,0.008741882,-0.097425437
201,5,0.9,2,37.39837398,1566,-6534,-210,-539,-279,-766,-4920,-11214,-662,2942,-1595,-6235,59.82229595,65.04,59.81204016,66.50292935,-0.045186241,0,0.043298277,-0.089172185
201,5,0.9,2,38.21138211,1599.185185,-7029.185185,120.7930771,-564.2920316,-260.0740741,-769.5293573,-5109.188008,-11285.76902,-867.5105899,2634.927629,-1312.503915,-5779.389796,59.82,65.04,59.85,66.45182798,-0.00229595,0,0.037959841,-0.051101375
201,5,0.9,2,39.02439024,1660.814815,-7948.814815,801.8083765,-578.4587094,-224.9259259,-780.1698258,-5278,-11418,-1026,2328,-1069,-5281,59.81940159,65.04069815,59.88708996,66.41160591,-0.000598412,0.000698148,0.037089957,-0.040222068
201,5,0.9,2,39.83739837,1694,-8444,1366,-603,-206,-798,-5510,-11560,-1094,2046,-923,-4787,59.80285365,65.06000407,59.9208195,66.37090755,-0.016547934,0.019305923,0.033729546,-0.040698364
201,5,0.9,2,40.6504065,810.4740587,-8226,1724.524455,-696.4982034,-283.5,-934.8414366,-5833.685013,-11239.0716,-1319.303635,1678.358277,-838.8384745,-4060.920212,59.77714635,65.08999593,59.96622676,66.32524045,-0.025707307,0.029991858,0.04540726,-0.045667098
201,5,0.9,2,41.46341463,-444,-8008,1908,-807,-361,-1170,-6062,-10716,-1642,1269,-800,-3204,59.76059841,65.10930185,60.03646001,66.2660164,-0.016547934,0.019305923,0.070233243,-0.05922405
201,5,0.9,2,42.27642276,-1040,-8404,1762,-864,-352,-1423,-6094.574712,-10226.9284,-1938.999653,861.7263004,-907.8848954,-2316.461151,59.76,65.11,60.09954946,66.21585684,-0.000598412,0.000698148,0.063089457,-0.050159555
201,5,0.9,2,43.08943089,-712,-8906.903609,1479.92841,-903.2854072,-444.1503817,-1784.157098,-6128,-9940,-2290,425,-1132,-1346,59.75770405,65.11,60.12,66.2,-0.00229595,0,0.020450537,-0.015856842
201,5,0.9,2,43.90243902,-384,-9620,1286,-936,-615,-2015,-6312,-11594,-2796,-78,-1474,-238,59.71251781,65.11,60.12,66.2,-0.045186241,0,0,0
201,5,0.9,2,44.71544715,-785,-11495.2521,1642,-962.9923077,-850.3496183,-2019.69794,-5486,-16716,-3504,-445,-1734,441,59.7,65.12282513,60.12702219,66.19730954,-0.01251781,0.012825133,0.007022186,-0.002690465
201,5,0.9,2,45.52845528,-1186,-12926,1998,-994,-1007,-2025,-8466,-12794,-624,-667,-2539,1967,59.7,65.17642369,60.16946061,66.17876625,0,0.053598555,0.042438429,-0.018543288
201,5,0.9,2,46.34146341,-1036,-10066,-384,-1052,-820,-2357,-8538.926368,-8434.364205,1083.014912,-968.816888,-2184.887214,3170.861024,59.69501985,65.20929633,60.21922654,66.14929633,-0.004980155,0.032872639,0.049765927,-0.029469919
201,5,0.9,2,47.15447154,-353.3579088,-9523.934414,-255.5510783,-1057.460058,-842.4018405,-2545.211398,-8560,-5920,2062,-1155,-1551,3788,59.67918789,65.23876625,60.24,66.11642369,-0.015831958,0.029469919,0.020773458,-0.032872639
201,5,0.9,2,47.96747967,216,-9336,-28,-1063,-887,-2712,-6250,-13500,2358,-882,-925,3045,59.65473808,65.25730954,60.24,66.06282513,-0.024449809,0.018543288,0,-0.053598555
201,5,0.9,2,48.7804878,-270,-10102,190,-1130,-947,-2927,-2066.405655,-8703,2016.70914,-922.4469483,188.1010623,3215.5,59.60487389,65.26,60.25000857,66.05,-0.049864188,0.002690465,0.01000857,-0.012825133
201,5,0.9,3,49.59349593,206,-11918,588,-1264,-947,-3054,2036,-3906,994,-1045,935,3386,59.52116681,65.26,60.29612917,66.05,-0.083707079,0,0.046120601,0
201,5,0.9,3,50.40650407,24,-12866,1066,-1369,-830,-3186,4162,-4584,-5774,-1918,610,2899,59.52,65.26,60.33989379,65.93030531,-0.001166811,0,0.043764616,-0.119694688
201,5,0.9,3,51.2195122,-112.9328238,-12294,861,-1432.95229,-808.4377891,-3423.215068,5538,-8260,-7108,-1732,95,2932,59.51770405,65.26,60.36,65.83306127,-0.00229595,0,0.020106213,-0.097244046
201,5,0.9,3,52.03252033,-182,-11722,656,-1463,-801,-3681,2030.3685,-8002.814815,-4908.444444,-1627.421085,135.4363989,3159.362166,59.47251781,65.26,60.36,65.89330959,-0.045186241,0,0,0.060248321
201,5,0.9,3,52.84552846,14,-12010,1342,-1392,-940,-3865,-4548.374111,-7525.185185,-823.5555556,-1549.543876,233.4283533,3532.694587,59.46,65.26203784,60.36,65.86410136,-0.01251781,0.002037841,0,-0.029208223
201,5,0.9,3,53.65853659,-813.0848401,-12996.80546,1166,-1420,-914.5,-4071.399243,-8282,-7268,1376,-1519,354,3745,59.46,65.27566312,60.36,65.69841848,0,0.013625275,0,-0.165682882
201,5,0.9,3,54.47154472,-1842,-13778,990,-1448,-889,-4312,-8486,-7830,-2306,-1766,521,3763,59.46,65.29607128,60.38192308,65.725,0,0.020408163,0.021923077,0.026581518
201,5,0.9,3,55.28455285,-2120,-13732,1194,-1436,-928,-4631,-644,-7778,-3490,-1369,255,3651,59.46,65.31612245,60.42919171,65.76,0,0.020051169,0.04726863,0.035
201,5,0.9,3,56.09756098,-1106,-12886,1352,-1362,-1176,-4955,-1017.4375,-7782.166716,-3062.408226,-1141.360621,217.6369389,3467.269931,59.46,65.32867674,60.48209135,65.76,0,0.012554293,0.052899639,0
201,5,0.9,3,56.91056911,-612,-12522,976,-1277,-1398,-5146,-1839,-7794.944576,-2060.255269,-963.3303823,197.7817676,3225.121851,59.46,65.33,60.49,65.76,0,0.001323258,0.007908654,0
201,5,0.9,3,57.72357724,-570,-11874,202,-1248,-1504,-5325,-2660.5625,-7816.750148,-904.4746774,-819.3849528,184.0357125,2964.912846,59.46,65.33,60.49,65.76,0,0,0,0
201,5,0.9,3,58.53658537,960.0278882,-13141.77778,411.9680182,-1343.666667,-1513.644889,-5508.90162,-3034,-7848,-16,-694,165,2727,59.46,65.33,60.49,65.835,0,0,0,0.075
201,5,0.9,3,59.3495935,3727.236166,-15496.22222,890.8249252,-1521.333333,-1517.481419,-5680.339699,-2752,-8099.027712,635.6276344,-574.5363217,133.8314099,2526.490845,59.46,65.33300781,60.49,65.90346443,0,0.003007813,0,0.068464435
201,5,0.9,3,60.16260163,5210,-16764,1412,-1617,-1526,-5756,-2470,-8332,980,-496,108,2325,59.46,65.3890625,60.49,65.75438419,0,0.056054687,0,-0.149080249
201,5,0.9,3,60.97560976,4729.385811,-15795.38358,2040.339277,-1606.497884,-1715.545157,-5549.278083,-2470.887462,-8283.25,906.6348595,-466.3855454,93.89050312,2086.139819,59.46,65.4,60.49,65.593625,0,0.0109375,0,-0.160759188
201,5,0.9,4,61.78861789,3564.771621,-13518.32272,2726.804832,-1578.884657,-2121.741596,-5038.111721,-2474.033233,-8176,731.1929587,-448.9528999,82.09711388,1824.565301,59.46,65.4,60.49,65.47145578,0,0,0,-0.122169223
201,5,0.9,4,62.60162602,2132,-10876,3074,-1540,-2544,-4386,-2480.162387,-8068.75,520.6545785,-432.5438044,74.00516771,1576.958133,59.46,65.40581018,60.5255957,65.47,0,0.00581018,0.035595703,-0.001455775
201,5,0.9,4,63.41463415,-399.059037,-6926.360139,3110.273605,-1461.571391,-3022.35657,-3095.978823,-2490,-8020,342,-406,71,1380,59.46,65.4242808,60.55,65.46195022,0,0.018470617,0.024404297,-0.008049778
201,5,0.9,4,64.22764228,-2216,-4232,3124,-1339,-3319,-2140,-2648,-8088,212,-349,101,1249,59.46,65.45280558,60.55,65.37093123,0,0.028524778,0,-0.091018995
201,5,0.9,4,65.04065041,860,-4525.804261,1428.231682,-1181.808337,-2309.086207,-2596,-2792.243892,-8136.185841,178.4055118,-312.1506922,109.0169492,1060.279701,59.47391602,65.50414452,60.55,65.30561556,0.013916016,0.051338948,0,-0.065315671
201,5,0.9,4,65.85365854,3936,-5030,-486,-964,-919,-3052,-2870,-8160,166,-272,112,854,59.51932617,65.60304568,60.55,65.26456136,0.045410156,0.098901157,0,-0.041054195
201,5,0.9,4,66.66666667,1886,-5470,-758,-616,-331,-2280,-2274,-8118,260,-194,80,671,59.52,65.65841099,60.55,65.21451231,0.000673828,0.055365308,0,-0.050049055
201,5,0.9,4,67.4796748,343.8214286,-4530.5277,-106.2779587,-278.6351136,426.2026521,-1660.572587,-2276,-8177,444.5415225,-133.9757927,72.46582278,500.7832564,59.52,65.70317268,60.55494606,65.16503208,0,0.044761696,0.004946061,-0.049480229
201,5,0.9,4,68.29268293,-434,-3512,698,30,925,-1053,-2278,-8236,572,-85,68,361,59.52,65.74381939,60.6015978,65.11654902,0,0.040646705,0.04665174,-0.048483057
201,5,0.9,4,69.10569106,-311.3269576,-3386.4723,967.2779587,279.6038009,980.9316401,-359.1154337,-2013,-8114.80203,553,-38.33692257,63.21666667,260.1457533,59.52,65.79034806,60.61,65.11,0,0.046528667,0.008402198,-0.006549021
201,5,0.9,4,69.91869919,-30,-3340,1084,521,1020,417,-1748,-7982,534,-13,60,194,59.52,65.82952982,60.61,65.11,0,0.039181763,0,0
201,5,0.9,4,70.73170732,554,-3710,358,799,1082,1350,-1773.925926,-7962.351946,576.1817782,-12.5996326,58.91391391,160.4014781,59.52,65.83,60.61,65.11,0,0.000470181,0,0
201,5,0.9,4,71.54471545,719.9791776,-3448.553773,-265.9672987,1056.468584,1174.031786,2107.331112,-1822.074074,-7950.175973,681.919112,-12.44824718,58.27227227,136.6577394,59.52,65.83,60.61,65.11,0,0,0,0
201,5,0.9,4,72.35772358,856,-3084,-644,1289,1275,2728,-1848,-7946,820,-12,57,121,59.52,65.83,60.61,65.11,0,0,0,0
201,5,0.9,4,73.17073171,1116,-2922,-714,1481,1363,3179,-1464,-8008,1046,5,51,112,59.52,65.84914504,60.61,65.14966703,0,0.01914504,0,0.039667035
201,5,0.9,4,73.98373984,1420.92,-3011.454545,-681,1666.451888,1440.055641,3712.484936,-1188,-7994,1180,-14,38,121,59.52,65.91,60.61,65.26,0,0.06085496,0,0.110332965
201,5,0.9,4,74.79674797,1600,-3210,-648,1835,1481,4276,-1195.777778,-8013.185185,1110.376973,-43.02632352,50.04938272,141.3790672,59.52,65.94929377,60.61,65.30157837,0,0.039293767,0,0.041578372
201,5,0.9,4,75.6097561,1501,-3589.892333,-702.594697,1974.731598,1381.85999,4833.439883,-1210.222222,-8048.814815,971.4206128,-75.43989228,72.7654321,175.3576022,59.52,65.98839193,60.60742188,65.33807409,0,0.039098159,-0.002578125,0.036495722
201,5,0.9,4,76.42276423,1402,-4110,-790,2099,1176,5378,-1218,-8068,868,-94,86,221,59.52,66.03260592,60.559375,65.37933679,0,0.044213998,-0.048046875,0.041262699
201,5,0.9,4,77.23577236,1469.05154,-4649.173621,-845.0805608,2208.623182,873.7059342,5870.342739,-1077,-8040.741379,820.3259053,-97.21104476,87.44444444,307.1066326,59.52,66.07447053,60.55,65.45431881,0,0.041864604,-0.009375,0.074982017
201,5,0.9,4,78.04878049,1616,-5228,-912,2320,465,6377,-936,-7966,798,-101,88,409,59.52,66.11553244,60.55,65.53891909,0,0.04106191,0,0.084600282
201,5,0.9,4,78.86178862,1880,-5822,-1054,2457,-42,6981,-1130,-7660,994,-138,79,484,59.52,66.16491235,60.5144043,65.54,0,0.049379912,-0.035595703,0.001080909
201,5,0.9,4,79.67479675,1833.166852,-5861.947787,-1158.116235,2553.749384,-352.3025166,7468.199777,-1154.158879,-8036,989.7615588,-198.997191,81.27412869,525.2278784,59.52,66.21570215,60.49,65.52708008,0,0.050789798,-0.024404297,-0.012919922
201,5,0.9,4,80.48780488,1738,-5896,-1256,2634,-577,7866,-1162,-8412,976,-239,88,566,59.52,66.26567285,60.49,65.41291992,0,0.049970703,0,-0.114160156
201,5,0.9,4,81.30081301,1602,-6066,-1370,2704,-733,8154,-1078,-7974,798,-239,129,638,59.49983539,66.27,60.49,65.4,-0.020164609,0.004327148,0,-0.012919922
201,5,0.9,4,82.11382114,1415.530211,-6419.978057,-1294,2798.660766,-830.0695364,8470.212517,-1570,-7930,750,-265,99,703,59.46053498,66.27,60.49,65.4,-0.039300412,0,0,0
201,5,0.9,4,82.92682927,1194,-6922,-1218,2872,-876,8752,-1692.939698,-7844.701493,759.1371191,-301.4630063,113.3922156,742.4722222,59.47095417,66.28460556,60.48221758,65.35983471,0.01041919,0.01460556,-0.007782424,-0.040165289
201,5,0.9,4,83.7398374,892.0355034,-7579.007107,-1523.514074,2896.761623,-666.6399254,8986.98431,-1738,-7786,786,-336,137,761,59.49676601,66.31902134,60.46009864,65.26519131,0.025811837,0.034415783,-0.022118934,-0.094643404
201,5,0.9,4,84.55284553,668,-8302,-1994,2913,-232,9110,-1498,-8078,944,-357,155,739,59.51756908,66.34675877,60.43148391,65.18891338,0.020803072,0.027737429,-0.028614733,-0.076277931
201,5,0.9,4,85.36585366,606.5212418,-8940.028803,-2363.485926,2929.977612,434.7048354,9088.065997,-1623,-7967.238434,936,-403.645073,153,768.5202633,59.52,66.31532707,60.3979817,65.2053125,0.002430921,-0.031431705,-0.03350221,0.016399124
201,5,0.9,4,86.17886179,582,-9568,-2568,2939,1268,9026,-1748,-7830,928,-470,151,826,59.52,66.2,60.36,65.26,0,-0.115327068,-0.037981698,0.0546875
201,5,0.9,4,86.99186992,1758,-10214,-1692,2870,2081,8730,-1672.040543,-7781.576117,973.7546435,-548.6010801,161.6178522,893.2160653,59.52,66.08993477,60.34019145,65.26,0,-0.110065227,-0.019808548,0
201,5,0.9,4,87.80487805,3110,-11018,-1086,2714,2573,8515,-1500.52553,-7747.121392,1079.064843,-641.9425153,187.5690377,978.486166,59.52494606,66.05577041,60.32578663,65.26,0.004946061,-0.034164368,-0.014404825,0
201,5,0.9,4,88.61788618,4348,-11910,-660,2411,3064,8049,-1318,-7734,1196,-742,220,1075,59.5715978,66.11019744,60.30906592,65.26,0.04665174,0.05442703,-0.016720706,0
201,5,0.9,4,89.43089431,5710.989883,-11989.26332,-656.6616781,2112.148955,3087.887766,7577.795117,-1106.437433,-7810.036227,1346.638861,-849.1939667,262.9238398,1185.053727,59.58,66.07570313,60.27513665,65.26,0.008402198,-0.03449431,-0.033929268,0
201,5,0.9,4,90.24390244,6866,-12014,-654,1809,3095,7057,-880.9964944,-7976.739121,1514.541653,-964.782995,321.8123473,1312.085942,59.58,65.98,60.24,65.26,0,-0.095703125,-0.035136653,0
201,5,0.9,4,91.05691057,7698.28625,-11930.43338,-522.2474808,1464.899298,2892.803468,6431.894973,-776,-8142,1594,-1082,390,1451,59.61273401,65.98,60.24,65.26,0.032734014,0,0,0
201,5,0.9,4,91.8699187,8448.643333,-11699.82235,-239.331094,1094.185119,2403.725915,5725.189991,-868.5977011,-8249.217036,1516,-1211.883584,467.737645,1615.273727,59.65367928,65.98,60.23487089,65.26,0.040945264,0,-0.005129112,0
201,5,0.9,4,92.68292683,8991.17875,-11352.30014,42.25083973,757.1283808,1804.035404,4955.640014,-1080,-8406,1438,-1318,570,1778,59.68632072,65.98,60.19612218,65.26,0.032641443,0,-0.038748705,0
201,5,0.9,4,93.49593496,9200,-10918,170,514,1270,4142,-1683.402299,-9160.08776,1770,-1368.240692,746.0787533,1935.515297,59.72726599,65.93253906,60.15273401,65.26,0.040945264,-0.047460937,-0.043388169,0
201,5,0.9,4,94.30894309,9112.88665,-9725.088826,56.38044914,340.9815259,786.6918284,3228.910452,-2168,-10388,2102,-1414,927,2023,59.76,65.83,60.12,65.26,0.032734014,-0.102539063,-0.032734014,0
201,5,0.9,4,95.12195122,8938,-8766,-196,256,406,2277,-798,-11782,1942,-1487,1033,2010,59.76,65.88047832,60.12,65.21690278,0,0.050478323,0,-0.043097216
201,5,0.9,4,95.93495935,8628.11335,-9098.029784,-585.3400391,264,183.1952141,1318.420781,880,-10884,532,-1684,982,2076,59.76387467,65.91,60.11860255,65.17081425,0.003874669,0.029521677,-0.001397446,-0.046088532
201,5,0.9,4,96.74796748,8406,-10210,-1344,272,79,511,707.3288563,-10500.33779,220.3195848,-1741.517832,936.7969349,2280.849516,59.80725898,65.91,60.09940229,65.1414182,0.043384312,0,-0.019200267,-0.029396048
201,5,0.9,4,97.56097561,9692,-31996,-3992,107,527,28,280.8799349,-10237.50223,50.31691196,-1773.34278,897.0651341,2587.443321,59.85095176,65.93583147,60.07318975,65.11895196,0.043692775,0.025831468,-0.026212539,-0.022466241
201,5,0.9,4,98.37398374,7280,-7122,1468,583,1288,-1635,-262,-10140,-124,-1834,880,2819,59.88,65.98,60.06,65.11,0.029048244,0.044168532,-0.013189749,-0.008951963
201,5,0.9,4,99.18699187,4781.34248,-8007,850.3014838,326.0417705,863.0212358,-2511.272619,-1088,-11628,-354,-2078,977,2921,59.88,65.98,60.06,65.11,0,0,0,0
201,5,0.9,4,100,2428,-8892,-164,-76,282,-3053,-436,-12611.35597,206.1169041,-2300.271983,872,3026.702923,59.88,65.98,60.05446289,65.11438835,0,0,-0.005537109,0.004388355
201,5,0.9,1,0,31.59756652,-8050.444444,-1114.387823,-403.5557401,-26.00071554,-3405.32689,216,-13190,1152,-2420,767,3163,59.88,65.98,60.00553711,65.16456308,0,0,-0.048925781,0.050174725
201,5,0.9,1,0.78125,-2189.978995,-6487.555556,-2048.416134,-707.8889811,-271.0559133,-3670.385667,87.2195122,-13344.84265,2135.883096,-2390.5,779.1937244,3426.376824,59.89615713,66.00583147,60,65.22050064,0.016157134,0.025831468,-0.005537109,0.055937564
201,5,0.9,1,1.5625,-3168,-5646,-2470,-842,-371,-3775,-114,-13490,2734,-2361,808,3744,59.94,66.05,60,65.26,0.043842866,0.044168532,0,0.039499356
201,5,0.9,1,2.34375,80,-8722,-1182,-717,-280,-3347,-246,-13904,1856,-2379,874,4015,59.98384287,66.00583147,59.96214126,65.20952168,0.043842866,-0.044168532,-0.037858742,-0.050478323
201,5,0.9,1,3.125,1971.507716,-8479.541577,580.4719101,-199.6011384,-133.9503339,-3405.555524,996,-14048,1216,-2320,882,4320,60,65.98,59.94,65.18531678,0.016157134,-0.025831468,-0.022141258,-0.024204896
201,5,0.9,1,3.90625,3212,-7866,1670,225,37,-3532,895.4794016,-13975.2941,1089.362158,-2233.497259,925.7504418,4514.017767,60,65.98,59.94,65.24366438,0,0,0,0.058347603
201,5,0.9,1,4.6875,3880,-6068,294,-225,202,-3749,604.7365811,-13771.03265,1021.203713,-2140.470852,1015.620319,4670.333559,60.01597391,66.00583147,59.94,65.29678089,0.015973909,0.025831468,0,0.053116508
201,5,0.9,1,5.46875,9626,-10070,-1324,-651,22,-4416,140,-13456,958,-2097,1128,4860,60.06,66.05,59.94,65.33,0.044026091,0.044168532,0,0.033219108
