locomotion_mode,terrain_info,walk_speed_info,gait_phase,gait_percentage,left_accel_x,left_accel_y,left_accel_z,left_gyro_x,left_gyro_y,left_gyro_z,right_accel_x,right_accel_y,right_accel_z,right_gyro_x,right_gyro_y,right_gyro_z,left_hip_angle,left_knee_angle,right_hip_angle,right_knee_angle,left_hip_angle_vel,left_knee_angle_vel,right_hip_angle_vel,right_knee_angle_vel
202,-5,0.9,4,67.64705882,324,-1660,966,736,-270,1323,-3036,-8028,242,-301,48,1357,59.52257813,66.28807596,60.06,64.68104527,-0.027421875,0.054692355,0,0.013010244
202,-5,0.9,4,68.38235294,-672,-2046,1700,844,-162,1909,-3142,-8436,490,-260,58,1208,59.570625,66.44474807,60.06,64.68888866,0.048046875,0.156672111,0,0.007843385
202,-5,0.9,4,69.11764706,-82.66478873,-1958.150515,995.4431175,948.5555825,83.71852257,2508.011023,-2930,-7944,746,-294,105,1005,59.58,66.52215353,60.06,64.69,0.009375,0.077405453,0,0.00111134
202,-5,0.9,4,69.85294118,744,-1772,-100,1075,395,3100,-2673.042011,-7948.246324,706.625,-280.9693396,103.6804435,927.9299156,59.58,66.56415504,60.06,64.69,0,0.04200151,0,0
202,-5,0.9,4,70.58823529,1145.974822,-1374.849485,-986.4431175,1284.772731,693.2318883,3674.698043,-2386.565022,-7960.823529,620,-250.5849057,100.0645161,874.3395638,59.58,66.66384375,60.02735599,64.65191533,0,0.099688714,-0.032644006,-0.038084673
202,-5,0.9,4,71.32352941,1458,-1076,-1482,1546,956,4216,-2098.305522,-7981.488971,533.375,-215.9080189,94.66633065,835.8294301,59.58151,66.72,60,64.62,0.001509999,0.056156249,-0.027355994,-0.031915327
202,-5,0.9,4,72.05882353,1782.689967,-1402.804415,-1399.020076,1825.491857,1174.142217,4684.085418,-1836,-8010,494,-190,88,804,59.61963856,66.72,60,64.62,0.038128564,0,0,0
202,-5,0.9,4,72.79411765,1960,-2074,-1190,2116,1288,5153,-1614,-8100,756,-176,75,779,59.68241371,66.76286587,60,64.60539589,0.062775145,0.042865866,0,-0.014604112
202,-5,0.9,4,73.52941176,1788,-3064,-588,2392,1166,5704,-1665.544332,-8090,844.9138439,-184.0524476,65.64655172,797.5454545,59.75639374,66.86850397,60,64.55267861,0.073980027,0.105638103,0,-0.052717281
202,-5,0.9,4,74.26470588,1442,-3684,-168,2538,891,6137,-1788,-8080,880,-204,61,830,59.78510715,66.87,60,64.55,0.028713414,0.001496031,0,-0.002678608
202,-5,0.9,4,75,1110,-4588,-26,2750,434,6825,-2074,-8260,702,-258,91,860,59.80645721,66.87,60,64.5520795,0.021350063,0,0,0.002079498
202,-5,0.9,4,75.73529412,1279.338673,-5281.072829,-195.6672835,2828.478753,129.3324976,7302.77216,-2074,-7945,659.4474912,-282.0312509,79,885.3779839,59.81838621,66.87,60,64.59951412,0.011928993,0,0,0.047434625
202,-5,0.9,4,76.47058824,1518,-5978,-478,2889,-102,7646,-2074,-7630,644,-303,67,914,59.82,66.85645833,60,64.6450226,0.001613794,-0.013541667,0,0.045508477
202,-5,0.9,4,77.20588235,1657.862986,-6935.875621,-745.0611121,2977.834905,-311.1536593,7882.417425,-2074.251503,-7637.033809,653.8752817,-331.1423055,67.77032134,953.0812441,59.82,66.795,60,64.68588933,0,-0.061458333,0,0.040866733
202,-5,0.9,4,77.94117647,1785.322654,-8061.870886,-1039.665433,3078.637138,-509.636586,8075.902756,-2075.103758,-7656.32006,680.9526672,-361.3419844,70.17646259,999.7411782,59.82,66.75047194,60,64.72677613,0,-0.044528062,0,0.040886801
202,-5,0.9,4,78.67647059,1878.120995,-9149.930708,-1277.937037,3167.870802,-657.8012198,8232.686709,-2076.703383,-7685.135988,721.4094666,-393.7461828,74.36118965,1053.333004,59.82494606,66.70418292,60,64.76821311,0.004946061,-0.046289019,0,0.041436981
202,-5,0.9,4,79.41176471,1914,-9994,-1376,3222,-716,8359,-2079.196998,-7720.758828,771.4229902,-428.5020467,80.46726838,1113.209925,59.8715978,66.64794061,60,64.8089469,0.04665174,-0.05624231,0,0.040733786
202,-5,0.9,4,80.14705882,1674,-10524,-682,3242,-706,8450,-2082.731221,-7760.465815,827.1705485,-465.7567223,88.63746466,1178.725143,59.88,66.64,60,64.87600895,0.008402198,-0.00794061,0,0.067062047
202,-5,0.9,4,80.88235294,1429.125614,-11369.69767,-717.6323441,3172.653685,-492.2590108,8339.904296,-2087.452672,-7801.534185,884.8294515,-505.6573555,99.01454437,1249.231859,59.88,66.64,60,64.98527867,0,0,0,0.109269719
202,-5,0.9,4,81.61764706,1181.097732,-12309.62661,-820.8202437,3024.41848,-18.19408366,8091.141925,-2093.507969,-7841.241172,940.5770098,-548.3510926,111.7412734,1324.083276,59.91497942,66.64,60,65.10626613,0.034979424,0,0,0.120987467
202,-5,0.9,4,82.35294118,930,-12754,-986,2887,516,7826,-2101.043732,-7876.864012,990.5905334,-593.9850795,126.9604176,1402.632597,59.94,66.63485973,60,65.20795326,0.025020576,-0.00514027,0,0.101687126
202,-5,0.9,4,83.08823529,674,-12418,-1550,2794,1107,7572,-2110.206578,-7905.67994,1031.047333,-642.7064623,144.8147428,1484.233023,59.94,66.5268608,60,65.29608786,0,-0.107998935,0,0.088134598
202,-5,0.9,4,83.82352941,666,-11788,-2140,2621,2203,7129,-2121.143128,-7924.966191,1058.124718,-694.6623871,165.447015,1568.237756,59.94,66.45386896,60,65.35971285,0,-0.072991832,0,0.063624993
202,-5,0.9,4,84.55882353,696.8109188,-11469.16485,-1750.673789,2469.294837,3031.426663,6817.52812,-2134,-7932,1068,-750,189,1654,59.94,66.42,60,65.39954802,0,-0.033868963,0,0.03983517
202,-5,0.9,4,85.29411765,774,-11328,-1110,2310,3509,6553,-2242,-7840,704,-824,276,1757,59.94,66.43460411,59.97246074,65.35847168,0,0.014604112,-0.02753926,-0.04107634
202,-5,0.9,4,86.02941176,1216.558367,-11433.25926,-564.3788473,2110.193478,3628.950804,6307.095878,-2558.198751,-7841,462.6431306,-863.6248129,287.5160957,1790.350544,59.94,66.46416853,59.92765312,65.33577041,0,0.029564421,-0.04480762,-0.022701275
202,-5,0.9,4,86.76470588,1941.279183,-11628.74074,-27.66557563,1884.123701,3704.642069,6076.704131,-2882,-7842,346,-892,295,1810,59.94,66.48732139,59.88578422,65.39019744,0,0.02315286,-0.041868899,0.05442703
202,-5,0.9,4,87.5,2322,-11734,358,1652,3731,5832,-3004,-7658,444,-914,307,1824,59.94,66.44540555,59.88,65.4,0,-0.041915839,-0.005784222,0.009802565
202,-5,0.9,4,88.23529412,2285,-11628.49008,610.6904473,1415.002813,3494.127582,5578.650533,-2965.5625,-7705.1875,462.74613,-940.1377682,329.5034201,1855.50883,59.94,66.28400864,59.88,65.4,0,-0.161396916,0,0
202,-5,0.9,4,88.97058824,2248,-11344,732,1178,3032,5264,-2881,-7809,469.8328173,-968.9715485,365.0279881,1907.186591,59.94,66.14019316,59.85374524,65.44080933,0,-0.143815474,-0.026254764,0.040809328
202,-5,0.9,4,89.70588235,2362,-10264,546,956,2446,4728,-2796.4375,-7912.8125,478.003096,-998.3195546,416.5385621,1975.021056,59.94553711,66.01991565,59.81201122,65.47,0.005537109,-0.120277511,-0.041734014,0.029190672
202,-5,0.9,4,90.44117647,2400,-9576,370,868,2049,4314,-2758,-7960,500,-1026,487,2055,59.99446289,65.9354331,59.76672488,65.47,0.048925781,-0.084482552,-0.045286338,0
202,-5,0.9,4,91.17647059,2288,-9116.818904,340.6212784,790.4068772,1597.41688,3716.931085,-2904,-7904,878,-1051,660,2178,60,65.85115594,59.76,65.4861807,0.005537109,-0.084277155,-0.006724885,0.016180702
202,-5,0.9,4,91.91176471,2176,-8836,318,709,1148,2996,-3036,-9366,1022,-1011,732,2236,60,65.76,59.76,65.54,0,-0.091155944,0,0.053819298
202,-5,0.9,4,92.64705882,2276.028148,-8708.987553,272.6319087,611.9397715,717.1181208,2141.745029,-2684,-8964,672,-1071,830,2141,60,65.6191543,59.76,65.59136377,0,-0.140845697,0,0.051363773
202,-5,0.9,4,93.38235294,2495.611852,-8620.938221,208.9525342,501.9698858,309.2067641,1202.159895,-2362.126546,-8565.531031,-144.8304643,-1171.10687,773.1875,2183.747766,60,65.52325715,59.76494606,65.61,0,-0.095897152,0.004946061,0.018636227
202,-5,0.9,4,94.11764706,2714,-8588,128,376,7,381,-2084,-8254,-738,-1237,686,2264,60,65.48476824,59.8115978,65.61,0,-0.038488907,0.04665174,0
202,-5,0.9,4,94.85294118,2934.385,-8696,3.552407485,205.3786267,-170.0089966,-263.1092325,-1878,-8100,-740,-1230,632,2355,59.97785874,65.41419762,59.82,65.61232629,-0.022141258,-0.070570629,0.008402198,0.002326293
202,-5,0.9,4,95.58823529,3066,-8804,-150,43,-318,-797,-2622,-8438,-378,-1242,635,2524,59.94,65.33,59.82,65.62538165,-0.037858742,-0.084197616,0,0.013055357
202,-5,0.9,4,96.32352941,3035.438202,-8572,-262.055819,-41.50086256,-523.9351145,-1311.39797,-2790,-8546,-86,-1273,668,2573,59.94,65.28555292,59.82,65.64755172,0,-0.044447077,0,0.022170073
202,-5,0.9,4,97.05882353,2930,-8340,-464,-141,-648,-1589,-3406,-8566,136,-1325,778,2686,59.93890944,65.23823911,59.82,65.6761157,-0.00109056,-0.04731381,0,0.028563979
202,-5,0.9,4,97.79411765,-990,-25504,-2932,-433,-632,-1405,-3340.990586,-8784.989632,60,-1380.959686,889.7893429,2769.256761,59.92852224,65.16917542,59.82,65.70835278,-0.0103872,-0.069063698,0,0.032237073
202,-5,0.9,4,98.52941176,2100,-7158,1126,-430,-85,-2255,-3188,-9176,-16,-1445,983,2863,59.91179904,65.09208722,59.82,65.74154213,-0.0167232,-0.077088192,0,0.033189357
202,-5,0.9,4,99.26470588,476,-228,3752,-103,-89,-2286,-2650.387106,-9525.607207,6.6063374,-1532.586365,1053.242101,3035.968728,59.89449984,65.02312514,59.82,65.77296296,-0.0172992,-0.068962086,0,0.03142083
202,-5,0.9,4,100,1196,-7944,986,-372,-1536,-1772,-1836.304664,-9970.60525,80.32378591,-1633.437053,1111.00994,3269.431109,59.88238464,64.97843976,59.82,65.79989446,-0.0121152,-0.044685379,0,0.026931492
202,-5,0.9,1,0,-3766,-7299,-413.7163664,-186,-2172.143518,-1503.855585,-1416,-10740,214,-1719,1135,3500,59.88,64.97674826,59.82,65.8196158,-0.00238464,-0.0016915,0,0.019721344
202,-5,0.9,1,0.793650794,-8728,-6654,-1652,0,-2442,-1384,-1624,-13764,1242,-1777,1029,3705,59.88,65.02559531,59.82,65.82940618,0,0.048847048,0,0.009790384
202,-5,0.9,1,1.587301587,-7162.027487,-7312.375751,-3876.13422,-188,-1134.5,-1848.263957,-2200,-14142,1610,-1729,1014,3763,59.88,65.07787086,59.82,65.83,0,0.052275557,0,0.000593817
202,-5,0.9,1,2.380952381,-4604,-8466,-5332,-376,173,-2537,-2726,-11976,1036,-1773,1122,3888,59.87946502,65.10937586,59.82,65.83,-0.000534979,0.031504994,0,0
202,-5,0.9,1,3.174603175,-2474.254055,-9768.517184,-2113.555556,-181.5555556,89.76027545,-3015.234447,-2284.310786,-11934.04552,454.7278009,-1828.555207,1249.19317,4024.085425,59.84016461,65.06352538,59.82,65.83,-0.039300412,-0.04585048,0,0
202,-5,0.9,1,3.968253968,-399.2480766,-11149.81415,3863.555556,179.5555556,-103.4794491,-3433.061668,-1570,-11922,130,-1862,1324,4186,59.82,65.04,59.82,65.83704798,-0.020164609,-0.023525377,0,0.007047985
202,-5,0.9,1,4.761904762,1102,-11792,7082,374,-322,-3612,-917.6892139,-11989.51613,243,-1799.5,1297.5,4425.753366,59.82,65.04,59.82,65.88923585,0,0,0,0.052187863
202,-5,0.9,1,5.555555556,2108.340787,-9868.983722,5492.392202,116.7279902,-626.7303099,-3464.979298,-538,-12130,356,-1737,1271,4683,59.82,65.04,59.82,65.94248149,0,0,0,0.05324564
202,-5,0.9,1,6.349206349,2594,-7798,2412,-296,-830,-3251,-2064.925579,-12405.37873,231.5555556,-1806.222222,1327.850955,4934.311138,59.82,65.04,59.82,65.98,0,0,0,0.037518512
202,-5,0.9,1,7.142857143,-1108,-7622,-1418,-590,-458,-3140,-5264.295602,-12763.91159,0.444444444,-1934.777778,1457.590799,5169.211124,59.82,65.04,59.82,65.98,0,0,0,0
202,-5,0.9,1,7.936507937,554,-6555.600809,-869.8860553,-486.5,-246.8715789,-3817.5,-8064,-12942,-124,-2004,1599,5273,59.82,65.03019744,59.82,65.98381828,0,-0.009802565,0,0.003818277
202,-5,0.9,1,8.73015873,2216,-5628,188,-383,-121,-4495,-10120.29206,-12493.93498,252.7734428,-1975.111111,1723.086268,4879.778344,59.82,64.97577041,59.82,66.01933373,0,-0.05442703,0,0.035515453
202,-5,0.9,2,9.523809524,2034,-7792,1488,-461,-72,-4349,-11222,-11516,972,-1926,1894,4134,59.82,64.97,59.82,66.07372805,0,-0.005770405,0,0.054394317
202,-5,0.9,2,10.31746032,2521,-7523,1151.863227,-585.8579202,-58.10950316,-4059.832613,-8635.406105,-9689.475224,2056.226557,-1894.659315,2385.623074,3292.307422,59.82,64.97,59.82,66.12436297,0,0,0,0.050634925
202,-5,0.9,2,11.11111111,3008,-7254,524,-667,-50,-3723,-5000,-7390,2798,-1842,2767,2283,59.82,64.87429688,59.82,66.16882671,0,-0.095703125,0,0.044463739
202,-5,0.9,2,11.9047619,2860,-7721,-360.8632269,-546.2602592,-42.05882353,-3461.348666,-3336,-5428,2344,-1460,2751,1128,59.82,64.8409375,59.82,66.21283348,0,-0.033359375,0,0.044006768
202,-5,0.9,2,12.6984127,2712,-8188,-954,-372,-38,-3194,-1872,-2178,2394,-927,2712,14,59.82,64.89699219,59.82,66.25533737,0,0.056054687,0,0.042503895
202,-5,0.9,2,13.49206349,3362,-8180.624521,-579.2307692,-277.1064075,-73,-2858.52789,-5884,4220,-1850,-332,1527,-330,59.82,64.9,59.82,66.31157751,0,0.003007813,0,0.056240139
202,-5,0.9,2,14.28571429,4012,-8160,-26,-204,-108,-2511,-4829.887612,3699.104478,-2472.151631,-91.33147787,778.5739076,-476.6415709,59.82,64.9,59.82,66.38261258,0,0,0,0.07103507
202,-5,0.9,2,15.07936508,3903,-7906.375479,353.2307692,-148.6889539,-74,-2215.780389,-2764.664112,2578.208955,-2819.853593,64.7544903,198.8425094,-574.0485287,59.77898438,64.97322846,59.82,66.45367137,-0.041015625,0.073228461,0,0.071058782
202,-5,0.9,2,15.87301587,3794,-7666,554,-102,-40,-1901,-1334,1520,-2928,282,-34,-765,59.76,65.08420723,59.82,66.51071412,-0.018984375,0.110978767,0,0.057042756
202,-5,0.9,2,16.66666667,3950,-8412,420,-59,-78,-1477,-944,770,-282,718,91,-1689,59.76,65.22390696,59.82,66.55683096,0,0.139699728,0,0.046116841
202,-5,0.9,2,17.46031746,3828,-8250,750,-42,-76,-1224,-676,-178,784,903,298,-2292,59.76,65.35139287,59.82,66.59880531,0,0.127485918,0,0.041974351
202,-5,0.9,2,18.25396825,3734,-7962,1304,-49,-76,-814,-874,-1544,512,1297,413,-3246,59.76,65.4,59.82,66.64,0,0.048607126,0,0.041194687
202,-5,0.9,2,19.04761905,3325.889816,-8052.740741,1101.777778,-40.76296296,-87.92592593,-551.3240649,-980,-1692,-230,1578,353,-3749,59.76,65.4,59.82,66.68575919,0,0,0,0.045759194
202,-5,0.9,2,19.84126984,2618.731646,-8221.259259,726.2222222,-23.63703704,-110.0740741,-345.6908548,-1016,-1948,-1264,1969,133,-4323,59.77131687,65.36490883,59.82,66.75148612,0.011316872,-0.035091166,0,0.06572693
202,-5,0.9,2,20.63492063,1954,-8312,524,-9,-122,-221,-1048,-2324,-1466,2249,-35,-4702,59.81555556,65.20959698,59.82,66.85145469,0.044238683,-0.155311854,0,0.099968563
202,-5,0.9,2,21.42857143,1462,-8072,708,-1,-116,-168,-1113.355552,-2777.866278,-1329.62963,2550.497451,-227.7289722,-5039.44664,59.82,65.13738803,59.82,66.94309815,0.004444444,-0.072208947,0,0.091643464
202,-5,0.9,2,22.22222222,1255.397098,-8160,681,1.857142857,-106.1758087,-170.5515745,-1205.567107,-3288.981659,-1076.37037,2850.962004,-426.6362106,-5352.124943,59.82,65.11,59.82,67.02,0,-0.027388032,0,0.076901849
202,-5,0.9,2,23.01587302,1088,-8248,654,3,-94,-177,-1298,-3846,-940,3081,-585,-5630,59.82,65.11,59.82,67.06188863,0,0,0,0.041888632
202,-5,0.9,2,23.80952381,813.0416401,-8144.814815,815.2592593,-8.770647653,-77.67901235,-202.5761274,-1369.726561,-4450.544803,-1072.921098,3239.178739,-688.8096796,-5881.928196,59.82,65.12460411,59.82,67.12214526,0,0.014604112,0,0.060256631
202,-5,0.9,2,24.6031746,519.0763756,-7953.185185,1114.740741,-35.20796197,-60.17283951,-254.7342312,-1441.67623,-5115.40887,-1326.28664,3365.784034,-772.2739193,-6109.104082,59.82,65.17732139,59.82,67.22523218,0,0.052717281,0,0.103086921
202,-5,0.9,2,25.3968254,382,-7850,1276,-63,-52,-320,-1550,-5846,-1482,3454,-861,-6290,59.82,65.14808467,59.79264401,67.27636755,0,-0.029236719,-0.027355994,0.051135369
202,-5,0.9,2,26.19047619,463.5625,-7867.5,1210.6875,-90.7004081,-55.68171806,-409.7124909,-1818.012282,-6744.53469,-1510.547098,3502.762981,-974.5844663,-6418.218708,59.82,65.11,59.76,67.32822557,0,-0.038084673,-0.032644006,0.051858023
202,-5,0.9,2,26.98412698,643,-7906,1067,-121.7523361,-64.4845815,-532.9884783,-2192,-7604,-1522,3549,-1077,-6526,59.82,65.11,59.76,67.47924682,0,0,0,0.151021242
202,-5,0.9,2,27.77777778,822.4375,-7944.5,923.3125,-150.178096,-75.04515419,-673.0202265,-2552.906023,-8328.730222,-1145.973228,3652.424354,-1156.888724,-6627.030027,59.810625,65.10234375,59.76,67.59531381,-0.009375,-0.00765625,0,0.116066998
202,-5,0.9,2,28.57142857,904,-7962,858,-170,-84,-813,-2964,-8732,-636,3725,-1198,-6731,59.76257813,65.04970703,59.76,67.67121258,-0.048046875,-0.052636719,0,0.075898764
202,-5,0.9,2,29.36507937,886.6158777,-7918.708061,916.0740741,-178.73,-90.34924984,-959.2613063,-3618.721983,-8756.176781,-377.0267717,3706.83068,-1123.271221,-6875.403554,59.76,65.0044948,59.77794434,67.81703996,-0.002578125,-0.045212228,0.017944336,0.145827387
202,-5,0.9,2,30.15873016,839.0095331,-7800.305012,1023.925926,-184.6639465,-96.23349722,-1113.510696,-4048,-8778,-252,3676,-992,-6996,59.76,64.96189934,59.82396973,67.9267453,0,-0.042595464,0.046025391,0.10970534
202,-5,0.9,2,30.95238095,768,-7624,1082,-198,-103,-1252,-3889.104776,-8961.226409,-362.6760721,3646.229761,-842.7030153,-7060.172248,59.76,64.92364468,59.8701123,67.6789877,0,-0.038254656,0.046142578,-0.247757605
202,-5,0.9,2,31.74603175,588,-7180,1052,-334,-112,-1362,-3527.987329,-9263.903602,-596.4632553,3615.785781,-683.9070632,-7108.14168,59.769375,64.88302362,59.86748219,67.46619698,0.009375,-0.040621061,-0.002630115,-0.212790718
202,-5,0.9,2,32.53968254,374.1464968,-7475,1055.855072,-377.3437894,-143.7331933,-1502.088773,-3138,-9434,-806,3597,-610,-7127,59.81742188,64.83871395,59.82229595,67.3360853,0.048046875,-0.044309676,-0.045186241,-0.130111678
202,-5,0.9,2,33.33333333,248,-7770,1066,-408,-169,-1658,-2752,-9446,-936,3591,-670,-7078,59.80769684,64.78949255,59.82,67.28162429,-0.009725036,-0.049221393,-0.00229595,-0.054461015
202,-5,0.9,2,34.12698413,784.7531579,-7702,1131.144928,-441.8421229,-134,-1854.790891,-2494,-9548,-1194,3638,-876,-7007,59.76834816,64.73443194,59.82039703,67.23267703,-0.039348681,-0.05506061,0.00039703,-0.048947263
202,-5,0.9,2,34.92063492,1530,-7634,1190,-481,-99,-1987,-2422,-9612,-1172,3661,-1017,-6959,59.72074431,64.69589406,59.85371591,67.11810932,-0.047603849,-0.038537881,0.033318879,-0.11456771
202,-5,0.9,2,35.71428571,1943.246842,-7769,1174.690368,-552.2119484,-145.5335196,-2004.098696,-2142,-9672,-874,3702,-1219,-6876,59.67734247,64.71618347,59.89567805,66.90965437,-0.043401839,0.020289406,0.041962144,-0.208454946
202,-5,0.9,2,36.50793651,2148,-7904,1128,-616,-207,-2016,-1961.9973,-9887.471554,-614.7803872,3687.036458,-1368.925145,-6771.826225,59.6404571,64.82328363,59.93437665,66.58544383,-0.036885374,0.107100165,0.038698593,-0.324210542
202,-5,0.9,2,37.3015873,2110,-7542,780,-639,-229,-2034,-1805.775378,-10248.47471,-374.5696475,3644.763889,-1505.739018,-6651.135066,59.65038673,64.87525644,59.96013682,66.5910055,0.009929633,0.051972809,0.02576017,0.005561668
202,-5,0.9,2,38.0952381,2180,-8058,520,-654,-257,-1996,-1695.665767,-10587.74052,-143.5740839,3579.109375,-1605.433382,-6506.376374,59.67526969,64.9139952,59.98264273,66.65161001,0.024882964,0.038738757,0.022505917,0.060604519
202,-5,0.9,2,38.88888889,2042,-7684,452,-654,-232,-2040,-1654,-10738,88,3494,-1644,-6330,59.69648891,64.94998981,59.99724116,66.70763485,0.021219214,0.035994611,0.014598427,0.056024832
202,-5,0.9,2,39.68253968,2157.537205,-7909,583,-694.1946845,-237.9081435,-2091.017647,-1677.494382,-10516,324.0423941,3289.318056,-1514.598381,-6078.725114,59.68608398,64.99629798,60,66.70127803,-0.010404923,0.046308174,0.00275884,-0.006356813
202,-5,0.9,2,40.47619048,2374,-8134,714,-753,-251,-2131,-1722,-10294,550,2976,-1286,-5739,59.64067383,65.03946335,60,66.58607286,-0.045410156,0.043165369,0,-0.115205174
202,-5,0.9,2,41.26984127,2672.15608,-8005.925926,710.4845831,-786.901206,-274.5403556,-2148.350947,-1772.052964,-10644,804.7395833,2591.943734,-1077.670643,-5300.475804,59.64,65.04,60,66.51942769,-0.000673828,0.000536646,0,-0.066645168
202,-5,0.9,2,42.06349206,3014.411373,-7768.074074,700.746944,-815.3215707,-311.6135382,-2160.201659,-1832,-10994,952,2199,-841,-4738,59.64,65.03930185,60.00067383,66.49,0,-0.000698148,0.000673828,-0.029427691
202,-5,0.9,2,42.85714286,3178,-7640,686,-840,-355,-2174,-1880.619899,-10727.82855,910.5690323,1924.996418,-495.6028539,-4054.231196,59.64,65.01999593,60.04608398,66.49,0,-0.019305923,0.045410156,0
202,-5,0.9,2,43.65079365,3085.818182,-7722.209895,624.7881773,-865.8467742,-409.34904,-2199.313694,-1936.032722,-10193.21265,791.8047313,1683.820573,-116.0342154,-3216.355016,59.64,64.99000407,60.06,66.49,0,-0.029991858,0.013916016,0
202,-5,0.9,2,44.44444444,2866,-7936,572,-880,-471,-2216,-2048,-9786,604,1361,78,-2186,59.64,64.97069815,60.06,66.49,0,-0.019305923,0,0
202,-5,0.9,2,45.23809524,2215.054545,-9187.790105,941,-875,-545.1851064,-2116.5,-3038,-9628,-2,776,95,-682,59.64,64.97,60.07038673,66.47777778,0,-0.000698148,0.010386729,-0.012222217
202,-5,0.9,2,46.03174603,1462,-10308,1310,-870,-590,-2017,-3440,-10104,-250,378,114,120,59.64,64.97,60.09526969,66.439829,0,0,0.024882964,-0.037948786
202,-5,0.9,2,46.82539683,1102,-8588,764,-989,-520,-2251,-2816,-10190,-44,27,122,963,59.64,64.97,60.11648891,66.38313907,0,0,0.021219214,-0.056689927
202,-5,0.9,2,47.61904762,1033.203916,-8706.862473,792,-1051.271719,-536.3000469,-2418.0974,-3062,-9512,12,-81,44,1423,59.64,64.99000407,60.12,66.28736318,0,0.020004071,0.003511093,-0.095775884
202,-5,0.9,2,48.41269841,999.2383137,-8982.169391,844,-1096.46566,-576.1556493,-2560.573828,-3900,-8000,-110,-243,31,1825,59.64,65.03930185,60.12,66.12783927,0,0.049297781,0,-0.159523918
202,-5,0.9,2,49.20634921,944,-9292,872,-1134,-626,-2725,-3786,-7782,-422,-331,60,1988,59.64,65.04,60.15264401,66.07831721,0,0.000698148,0.032644006,-0.049522059
202,-5,0.9,2,50,742.8560666,-9592.975191,756.6093294,-1173.710983,-695.1165816,-2936.933069,-4177,-18823,-2980.326867,-1041.859941,-1196.5,1614,59.64,65.04,60.18,66.04176471,0,0,0.027355994,-0.036552502
202,-5,0.9,2,50.79365079,584,-10002,556,-1195,-786,-3192,-4568,-29864,-5284,-1681,-2453,1240,59.64,65.04,60.18,66.00058824,0,0,0,-0.041176471
202,-5,0.9,2,51.58730159,866,-10891.39237,328.3906706,-1171.5,-922.9625323,-3514.855942,-3970.883588,-17528,-1415.075498,-403,-1005.724962,1408.5,59.64,65.04,60.18,65.95983,0,0,0,-0.040758234
202,-5,0.9,2,52.38095238,1148,-11722,186,-1148,-1013,-3874,-2344,-5192,4306,875,868,1577,59.64,65.04,60.18,65.91886265,0,0,0,-0.040967352
202,-5,0.9,3,53.17460317,6,-11958.14621,241.0621646,-1154.5,-1011,-4266.069327,4126,-10784,7440,224,1482,879,59.64,65.04,60.18,65.87562557,0,0,0,-0.043237078
202,-5,0.9,3,53.96825397,-1136,-12218,388,-1161,-1009,-4592,5600,-6274,480,-206,1341,840,59.64,65.04,60.18,65.81157678,0,0,0,-0.064048794
202,-5,0.9,3,54.76190476,-1059.015416,-14012.09928,1450.937835,-1082.486315,-1144.816343,-4750.328201,4951.874939,-7534,-1720.66619,-331.4798194,652.6538023,1442.67981,59.64,65.04,60.18,65.66211113,0,0,0,-0.149465646
202,-5,0.9,3,55.55555556,-916,-15590,2422,-994,-1358,-4904,3463.305434,-9874,-3118.555317,-402.6033268,-402.0064322,2650.026287,59.64,65.05167666,60.18,65.55656985,0,0.011676665,0,-0.105541277
202,-5,0.9,3,56.34920635,-792.2024342,-15378.0308,2029.381247,-981.3632144,-1491.980493,-5256.377859,1818,-11134,-3608,-510,-948,3561,59.64,65.10548403,60.18,65.47891893,0,0.053807368,0,-0.077650929
202,-5,0.9,3,57.14285714,-642.2237548,-14868.28383,1291.429162,-974.9121577,-1614.1379,-5694.636746,296.3696847,-10187.7037,-1596.148148,-748.1635109,-561.4444444,3911.236164,59.64,65.15654275,60.18,65.36321589,0,0.051058719,0,-0.115703038
202,-5,0.9,3,57.93650794,-402,-14250,868,-962,-1769,-5915,-1453.858035,-8430.296296,2140.148148,-1106.720523,156.4444444,4160.067313,59.63742188,65.18,60.18,65.2245894,-0.002578125,0.023457249,0,-0.138626484
202,-5,0.9,3,58.73015873,302,-13426,840,-904,-2019,-5921,-3698,-7484,4152,-1519,543,4492,59.589375,65.18,60.18,65.12533568,-0.048046875,0,0,-0.099253727
202,-5,0.9,3,59.52380952,3317.128491,-13602.81481,1164.403298,-1009.63786,-2055.648329,-5897.817118,-7320,-15096,-348,-2022,216,5102,59.59714635,65.15999593,60.18,65.11,0.007771346,-0.020004071,0,-0.015335676
202,-5,0.9,3,60.31746032,7820.453134,-13931.18519,1863.028818,-1228.609053,-2071.885711,-5829.07868,-7019.276585,-13113.7037,-164.342609,-1875.259259,96.18602927,5092.223572,59.63940159,65.11069815,60.18,65.11,0.042255241,-0.049297781,0,0
202,-5,0.9,4,61.11111111,10138,-14108,2524,-1414,-2105,-5716,-6282.108725,-9432.296296,296.6481153,-1602.740741,17.37079241,5060.002699,59.60735599,65.13517825,60.1444043,65.11,-0.032045593,0.0244801,-0.035595703,0
202,-5,0.9,4,61.9047619,8212.593561,-12728.175,3114.212957,-1538.907407,-2277.245727,-5037.205018,-5356,-7450,900,-1456,-11,5001,59.58067383,65.1930545,60.12,65.1262963,-0.026682166,0.057876253,-0.024404297,0.016296296
202,-5,0.9,4,62.6984127,5628,-10004,3452,-1604,-2580,-3898,-3998,-7574,1894,-1607,146,4501,59.59898438,65.294329,60.12,65.2885048,0.018310547,0.101274498,0,0.162208505
202,-5,0.9,4,63.49206349,4346.722559,-5707.534911,3247.153253,-1576.324187,-3110.703313,-2422.112399,-3336,-7760,1378,-1528,143,4253,59.62608398,65.42423666,60.12,65.30664519,0.027099609,0.129907665,0,0.018140392
202,-5,0.9,4,64.28571429,3348.361279,-426.2031497,2688.973172,-1503.537262,-3766.296101,-787.1117551,-3576,-7766.191099,172.8229784,-1444.778755,135.5140449,3965.066047,59.64,65.54,60.12,65.19104067,0.013916016,0.115763338,0,-0.115604524
202,-5,0.9,4,65.07936508,2946,2494,1862,-1401,-4087,-15,-3816,-7768,-700,-1352,130,3655,59.60502058,65.62501372,60.12,65.04452933,-0.034979424,0.085013722,0,-0.146511343
202,-5,0.9,4,65.87301587,3382,3008.076771,-1162.297409,-1188.948577,-3039.817731,-588,-3802.688,-7708.928,-592.464,-1233.578479,131.352,3329.838654,59.58,65.70657146,60.12,64.97,-0.025020576,0.081557734,0,-0.074529326
202,-5,0.9,4,66.66666667,3818,3210,-3720,-870,-1516,-1161,-3770.944,-7568.064,-336.032,-1093.187746,134.576,2988.084082,59.58,65.78858922,60.12,64.97,0,0.082017763,0,0
202,-5,0.9,4,67.46031746,3158.336865,1613.84495,-3176.063902,-456.5140936,-634.4549235,-710.8754145,-3733.056,-7399.936,-29.968,-947.5077726,138.424,2642.510184,59.58,65.9177994,60.12,64.98248117,0,0.129210183,0,0.012481172
202,-5,0.9,4,68.25396825,1938,-394,-1932,-25,-1,202,-3701.312,-7259.072,226.464,-813.2185329,141.648,2305.890857,59.58,66.10220634,60.12,65.03443856,0,0.184406939,0,0.051957392
202,-5,0.9,4,69.04761905,612,-968,628,300,346,1499,-3688,-7200,334,-707,143,1991,59.56904583,66.31305122,60.12,65.10743855,-0.01095417,0.210844876,0,0.072999983
202,-5,0.9,4,69.84126984,-10.61813114,-1448.5635,1352.696113,419.3554542,550.8516376,2296.782868,-3823,-7727,159,-635.5168262,141.9166667,1692.592922,59.54323399,66.54765032,60.12,65.1998805,-0.025811837,0.234599103,0,0.092441957
202,-5,0.9,4,70.63492063,-280,-1700,1626,508,748,2961,-3958,-8254,-16,-568,139,1433,59.52243092,66.70316541,60.12,65.313143,-0.020803072,0.155515089,0,0.113262498
202,-5,0.9,4,71.42857143,392.8678008,-1505.80313,658.3298566,607.3904715,1068.539328,3670.455121,-3920,-7682,298,-480,128,1242,59.53216212,66.72,60.12,65.31231585,0.009731201,0.01683459,0,-0.000827154
202,-5,0.9,4,72.22222222,1290,-1142,-642,723,1388,4296,-3456,-8062,348,-436,128,1010,59.57617946,66.72,60.12,65.26,0.044017341,0,0,-0.052315848
202,-5,0.9,4,73.01587302,1624,-732,-1142,902,1594,4751,-3003.572599,-7930.814815,448.7175722,-388.0960219,119.962963,881.5424407,59.61512543,66.76152832,60.12,65.23378495,0.038945972,0.04152832,0,-0.02621505
202,-5,0.9,4,73.80952381,2182,-672,-1340,1261,1872,5365,-2590.564077,-7687.185185,570.6921194,-342.3813443,105.037037,786.4059721,59.6493065,66.78976966,60.12,65.21344132,0.034181066,0.028241335,0,-0.020343634
202,-5,0.9,4,74.6031746,2023.5625,-1009.771891,-1157.332031,1571.003495,1774.849886,5934.838797,-2410,-7556,630,-322,97,737,59.68176941,66.78558812,60.12,65.19118327,0.032462909,-0.004181532,0,-0.022258041
202,-5,0.9,4,75.3968254,1675,-1822.725042,-718.21875,1861.732497,1538.849697,6483.560683,-2445.278195,-7667.064286,620.0895522,-342.5,107.4302326,717.8989362,59.71321392,66.77591922,60.12,65.15562315,0.031444512,-0.009668903,0,-0.035560122
202,-5,0.9,4,76.19047619,1326.4375,-2810.315672,-185.9960937,2116.595251,1247.174659,7005.002227,-2512,-7848,598,-363,123,710,59.73941958,66.76045578,60.12,65.10030945,0.026205655,-0.015463445,0,-0.055313705
202,-5,0.9,4,76.98412698,1168,-3672,276,2319,983,7493,-2609.721805,-8016.935714,540.9104478,-347.5,134.0697674,714.0502513,59.75616591,66.73889062,60.12,65.0526793,0.016746337,-0.021565157,0,-0.047630145
202,-5,0.9,4,77.77777778,1612,-4340,630,2457,760,7928,-2676,-8116,496,-332,140,723,59.76,66.70254535,60.11505394,65.04577041,0.003834085,-0.036345265,-0.004946061,-0.006908897
202,-5,0.9,4,78.57142857,1460,-5090,110,2570,327,8521,-2597.555081,-7978.265769,732.962963,-345.7442424,130.6666667,737.6710892,59.76,66.56013824,60.0684022,65.10019744,0,-0.142407116,-0.04665174,0.05442703
202,-5,0.9,4,79.36507937,1497.333333,-5974.276947,-621.2203746,2694.959038,333.2798906,8732.909489,-2414.665717,-7712.975982,1173.037037,-378.8218182,113.3333333,761.3650706,59.77386917,66.33281295,60.06,65.08999593,0.013869173,-0.227325288,-0.008402198,-0.010201506
202,-5,0.9,4,80.15873016,1566.666667,-6927.485178,-1394.721298,2827.488003,350.2264479,8865.615549,-2206,-7542,1410,-419,104,793,59.82,66.12,60.06,65.04069815,0.046130827,-0.21281295,0,-0.049297781
202,-5,0.9,4,80.95238095,1604,-7832,-1754,2964,375,9002,-1917.482431,-7497.542536,1293.038993,-474.5840083,130.2753623,843.7312728,59.86402609,66.12,60.06,65.04,0.044026091,0,0,-0.000698148
202,-5,0.9,4,81.74603175,1597.02439,-8603.689634,-1566.159523,3141.32697,427.7417451,9214.46273,-1586.296771,-7467.215713,1068.522431,-545.511855,181.2173913,918.9660421,59.88,66.12352243,60.06,65.04,0.015973909,0.003522427,0,0
202,-5,0.9,4,82.53968254,1578,-9404,-1128,3250,530,9344,-1428,-7456,926,-607,215,1009,59.88,66.17231382,60.06,65.04,0,0.048791392,0,0
202,-5,0.9,4,83.33333333,1502,-10418,-166,3236,788,9308,-1432.468531,-7918,895.6482791,-646.0996973,223.0652174,1124.961687,59.89898438,66.28612539,60.06,65.07566411,0.018984375,0.113811572,0,0.03566411
202,-5,0.9,4,84.12698413,1870,-11614,144,3159,1125,9161,-1446,-8380,880,-688,229,1267,59.94,66.42,60.06,65.18,0.041015625,0.133874609,0,0.10433589
202,-5,0.9,4,84.92063492,1594,-12595.78647,-441.1343284,3058.791503,1725.885395,8929.61098,-1542,-7872,874,-762,236,1431,59.94,66.42,60.06,65.2263798,0,0,0,0.046379796
202,-5,0.9,4,85.71428571,1318,-13106,-1152,2935,2434,8669,-1378,-7866.600323,821.5364964,-826.7733916,265.3788518,1602.839175,59.94553711,66.41111859,60.06,65.28372666,0.005537109,-0.008881414,0,0.057346867
202,-5,0.9,4,86.50793651,1348.753346,-12302,-1370.865672,2783.796183,3137.399368,8439.599111,-1214,-7862,774,-895,293,1789,59.99446289,66.305342,60.06,65.38470551,0.048925781,-0.105776589,0,0.10097885
202,-5,0.9,4,87.3015873,1446,-11498,-1464,2585,3702,8210,-1520.986958,-7761.621359,793.2312253,-995.8429141,296.6796274,2036.974171,60,66.17796919,60.06,65.4,0.005537109,-0.127372812,0,0.015294488
202,-5,0.9,4,88.0952381,2412,-11596,-456,2272,3976,7965,-1928,-7666,848,-1080,301,2237,60,66.05,60.06,65.4,0,-0.127969186,0,0
202,-5,0.9,4,88.88888889,3262.922235,-11968.77684,-143.1587543,1912.860497,3877.985961,7823.167372,-2076,-7720,1118,-1111,360,2309,60,65.97311848,60.05388998,65.46050275,0,-0.076881524,-0.006110018,0.060502748
202,-5,0.9,4,89.68253968,3716,-12270,2,1588,3680,7694,-2419.488384,-7823.288987,931,-1153.615936,520.9968265,2355.123477,60,65.9128305,60.03709277,65.58298392,0,-0.060287977,-0.01679721,0.122481172
202,-5,0.9,4,90.47619048,3508,-12196,44,1374,3402,7519,-2718,-8060,744,-1180,652,2397,60,65.85134131,60.01190764,65.67890291,0,-0.061489189,-0.025185135,0.09591899
202,-5,0.9,4,91.26984127,3445.77937,-12004.64781,171.5586948,1253.305556,2980.056453,7195.88922,-2786,-9978,1356,-1079,664,2448,60,65.77779674,59.95479745,65.69,0,-0.073544565,-0.057110184,0.011097089
202,-5,0.9,4,92.06349206,3422,-11666,358,1198,2459,6736,-2560,-9234,1788,-1057,725,2463,60,65.69,59.88,65.69,0,-0.087796744,-0.074797454,0
202,-5,0.9,4,92.85714286,3656.920286,-10720.13288,606.4269909,1207,1884.878367,6136.345731,-3194,-7164,1176,-1104,1128,2577,60,65.54002151,59.88,65.72025408,0,-0.149978486,0,0.030254081
202,-5,0.9,4,93.65079365,4124,-9976,780,1216,1205,5309,-3166,-8998,-58,-1259,1229,2543,60,65.44978879,59.88,65.78259444,0,-0.090232726,0,0.062340355
202,-5,0.9,4,94.44444444,4750,-10198,798,1071,316,3979,-2449.30032,-9002.684057,-984.8088707,-1322.7485,1105.31383,2553.217512,60,65.41570334,59.88,65.88740556,0,-0.034085447,0,0.104811129
202,-5,0.9,4,95.23809524,5166.489874,-11141.07055,884.8644068,780.9721821,-536.4966264,2574.957598,-1736,-9004,-1452,-1375,953,2584,60,65.32135083,59.88,65.94974592,0,-0.094352515,0,0.062340355
202,-5,0.9,4,96.03174603,5368,-11956,958,427,-1217,1258,-1712,-8694,-1102,-1449,914,2795,60,65.18,59.88,65.98,0,-0.141350826,0,0.030254081
202,-5,0.9,4,96.82539683,4906,-12000,762,109,-1593,207,-2063,-9736,187.9386694,-1495.309636,980.5027778,2989.527716,60,65.08953572,59.86681025,65.98,0,-0.090464276,-0.013189749,0
202,-5,0.9,4,97.61904762,4593.825798,-13190.20157,-189.8445641,-341.7668096,-1732.578736,-561.1499718,-2414,-10778,1224,-1546,1092,3179,60,65.00054188,59.84059771,65.98,0,-0.088993842,-0.026212539,0
202,-5,0.9,4,98.41269841,4442,-14798,-1104,-704,-1789,-1299,-2177.454098,-10611,1178.62522,-1661.000384,1187.108937,3379.909091,60,64.9078404,59.82139745,65.98,0,-0.092701481,-0.019200267,0
202,-5,0.9,4,99.20634921,4452,-15703.11248,-1289.665254,-859.2497587,-1543,-2439.797983,-1788,-10444,1072,-1782,1274,3563,60,64.9,59.82695384,65.98811281,0,-0.007840401,0.00555639,0.008112809
202,-5,0.9,4,100,4462,-16152,-1362,-927,-1297,-3164,-1488.883473,-10799.91656,700.7403499,-1852.470986,1353.616211,3695.130348,60,64.9013963,59.85136322,66.01659042,0,0.001396296,0.024409383,0.028477614
202,-5,0.9,1,0,1534.524073,-12557.26184,-274,-470.5,-1915,-2761,-1194.977874,-11606.49979,139.5923972,-1908.668721,1424.419216,3809.018271,60,64.99999186,59.87477085,66.04389932,0,0.098595563,0.02340763,0.027308902
202,-5,0.9,1,0.826446281,-3744,-6880,814,-14,-2533,-2358,-894,-12472,-150,-1960,1455,3950,60,65.01059231,59.8715978,66.05,0,0.010600448,-0.003173047,0.006100676
202,-5,0.9,1,1.652892562,-9068,-3028,-4440,-592,-2004,-2562,-507.9518159,-13495.64836,314.5925926,-2013.795885,1431.925926,4163.853707,60,64.84731122,59.82494606,66.05,0,-0.163281091,-0.04665174,0
202,-5,0.9,1,2.479338843,-5887.015021,-4850.669326,-5001.286408,-514.1153846,-281.8834814,-3375.684984,-114.3092413,-14595.93529,1177.407407,-2063.791559,1389.074074,4429.724719,59.9755957,64.83,59.82,66.07583147,-0.024404297,-0.017311215,-0.004946061,0.025831468
202,-5,0.9,1,3.305785124,-1240,-7418,-5180,-367,1067,-4039,66,-15110,1642,-2099,1366,4693,59.94,64.8286037,59.82,66.12,-0.035595703,-0.001396296,0,0.044168532
202,-5,0.9,1,4.132231405,1559.249126,-8429.109585,47.97794977,-152.3846154,493.0263824,-3936.293536,-41.74148862,-14729.93419,1507.220384,-2114.935242,1402.852561,4904.394154,59.94,64.73000814,59.82,66.12,0,-0.098595563,0,0
202,-5,0.9,1,4.958677686,3448,-9672,7200,-7,-238,-3826,-394.8163106,-13984.97949,1118.662991,-2125.657719,1471.927344,5113.272928,59.9315978,64.69,59.82,66.12,-0.008402198,-0.040008142,0,0
202,-5,0.9,1,5.785123967,4230,-14392,10154,-27,-460,-3817,-1038,-13468,500,-2148,1511,5413,59.88494606,64.69,59.82,66.12,-0.04665174,0,0,0
202,-5,0.9,1,6.611570248,3091,-10130,6808.250867,-516.7102616,-510.0519849,-3711.718261,-6208,-13326,-1560,-2290,1513,6046,59.88,64.80388672,59.8444043,66.14475171,-0.004946061,0.113886719,0.024404297,0.024751712
202,-5,0.9,1,7.438016529,1952,-5868,1038,-989,-528,-3614,-9145.026039,-14083,-334.9425977,-2235,1619.192864,5868.71875,59.88,64.9695368,59.88,66.20452875,0,0.16565008,0.035595703,0.059777043
202,-5,0.9,1,8.26446281,5810,-18180,-4072,-966,175,-4882,-10494,-14840,1614,-2180,1843,5457,59.88,64.93066477,59.88,66.2483061,0,-0.038872025,0,0.043777344
202,-5,0.9,1,9.090909091,4696,-13294.47758,-2492.447195,-804.3671685,164.1288732,-4922.259516,-9317.603546,-12935.15695,3262.17175,-2238,2279.028389,4505.280857,59.870625,64.88269692,59.87756908,66.28159884,-0.009375,-0.047967858,-0.002430921,0.03329274
202,-5,0.9,2,9.917355372,3582,-7944,-266,-656,132,-4934,-7040,-9818,4276,-2296,2707,3158,59.82257813,64.8385777,59.85676601,66.30481163,-0.048046875,-0.044119216,-0.020803072,0.023212792
202,-5,0.9,2,10.74380165,4366,-7382,764,-650,-63,-4552,-3450.396454,-7522.790146,4416.770848,-1966.918733,2912.670103,1747.1436,59.82,64.78856934,59.83095417,66.32605697,-0.002578125,-0.050008364,-0.025811837,0.021245341
202,-5,0.9,2,11.57024793,3492,-7736,690,-678,-93,-4163,-962,-5130,4468,-1377,3007,370,59.82,64.76069815,59.82,66.35324024,0,-0.027871188,-0.01095417,0.027183266
202,-5,0.9,2,12.39669421,3487.319709,-7879.987549,334.4573387,-686.6619718,-77.41536965,-3783.476518,-3478,-2238,2644,-792,2629,-699,59.82,64.80999593,59.82,66.39349841,0,0.049297781,0,0.040258176
202,-5,0.9,2,13.2231405,3486,-7992,-138,-690,-56,-3441,-3190.169065,2322.252777,-332.5018519,-495.5398025,1600.805525,-495,59.82,64.83,59.82,66.43752377,0,0.020004071,0,0.044025357
202,-5,0.9,2,14.04958678,4216,-8132,-450,-475,-47,-3174,-2484,5272,-3058,-245,430,-291,59.82,64.83,59.82,66.48333457,0,0,0,0.045810799
202,-5,0.9,2,14.87603306,3874,-8112.21978,-726.4818024,-325.2581237,-88.5,-2735.157452,-638,4212,-4312,73,-250,-827,59.82,64.70233869,59.82,66.52982611,0,-0.127661307,0,0.046491538
202,-5,0.9,2,15.70247934,3532,-8060,-874,-203,-130,-2267,-645.8125,3066.509885,-3623.875,432.2890819,-314.4960703,-1502.575078,59.82,64.55090469,59.82,66.57418763,0,-0.151434006,0,0.044361527
202,-5,0.9,2,16.52892562,3726.222222,-7715.78022,-233.596875,-73.02109705,-86,-1936.498323,-663,1867.298809,-2110,817.511324,-345.659786,-2272.617774,59.82,64.63060363,59.82,66.61145443,0,0.079698939,0,0.037266795
202,-5,0.9,2,17.3553719,4084,-7404,742,-1,-42,-1597,-680.1875,718.9383291,-596.125,1193.727904,-367.7436088,-3057.601583,59.82,64.77680124,59.82,66.66954276,0,0.146197615,0,0.058088332
202,-5,0.9,2,18.18181818,4468,-8066,1332,-14,-108,-1115,-688,-274,92,1526,-405,-3778,59.82,64.96165097,59.82,66.77088662,0,0.184849727,0,0.101343857
202,-5,0.9,2,19.00826446,3870.14808,-8283.093006,969.5343511,-39.44278997,-128.2245509,-784.5068695,-610,-1044,-146,1793,-475,-4397,59.82,64.97,59.82,66.861194,0,0.008349031,0,0.090307379
202,-5,0.9,2,19.83471074,3106,-8368,508,-57,-136,-559,-644.7834646,-1784.556293,-548.740782,2162.65381,-660.2637387,-4915.348748,59.82,64.96959066,59.82,66.94895963,0,-0.000409342,0,0.087765632
202,-5,0.9,2,20.66115702,2870,-7868,368,-31,-134,-446,-734,-2264,-912,2548,-899,-5353,59.82,64.93143257,59.82,67.04323443,0,-0.038158085,0,0.094274801
202,-5,0.9,2,21.48760331,1808,-8252,590,-8,-119,-287,-1207.216535,-2360.790348,-1105.79619,2885.661124,-1148.076196,-5700.053675,59.82,64.84016689,59.810625,67.11137084,0,-0.09126568,-0.009375,0.068136411
202,-5,0.9,2,22.31404959,1642,-8242,936,-13,-109,-257,-1626,-2458,-1196,3161,-1302,-6000,59.82,64.69670076,59.76257813,67.15682608,0,-0.143466134,-0.048046875,0.045455233
202,-5,0.9,2,23.14049587,1540,-7740,1236,-52,-74,-229,-1486,-2949.54596,-970,3357.83314,-1314.577976,-6276.361944,59.84735599,64.72191533,59.76,67.26336977,0.027355994,0.025214568,-0.002578125,0.106543695
202,-5,0.9,2,23.96694215,1346.990709,-7800.666667,1135.925926,-82.96044961,-71.25925926,-238.4128812,-1346,-3724,-744,3489,-1319,-6531,59.88,64.76,59.76,67.41402117,0.032644006,0.038084673,0,0.150651397
202,-5,0.9,2,24.79338843,1118.384243,-7913.333333,950.0740741,-109.0357804,-70.14814815,-263.1590958,-1467.940702,-4483.67107,-908.6875,3552.204332,-1270.25,-6808.421117,59.88,64.76,59.76,67.55868102,0,0,0,0.144659854
202,-5,0.9,2,25.61983471,1008,-7974,850,-120,-68,-298,-1753.675205,-5321.41811,-1271,3592.123548,-1163,-7099.093107,59.86748219,64.80381233,59.76,67.70616943,-0.01251781,0.043812335,0,0.147488411
202,-5,0.9,2,26.44628099,1100,-7602,876,-113,-60,-370,-2083.072106,-6277.456094,-1633.3125,3631.23099,-1055.75,-7335.218544,59.82229595,64.96196418,59.76,67.84426268,-0.045186241,0.158151842,0,0.138093245
202,-5,0.9,2,27.27272727,1029.481481,-7646.074074,1002.378378,-119.3740266,-64.59675406,-429.3605721,-2336,-7392,-1798,3692,-1007,-7449,59.82,64.9,59.73264401,67.89706224,-0.00229595,-0.061964177,-0.027355994,0.052799564
202,-5,0.9,2,28.09917355,898.5185185,-7727.925926,1195.855856,-139.7480533,-78.52684145,-486.472969,-2482,-8922,-1536,3818,-1137,-7468,59.82,64.83182373,59.7,67.93487158,0,-0.068176267,-0.032644006,0.037809333
202,-5,0.9,2,28.92561983,828,-7772,1296,-176,-102,-568,-2872.974281,-8959.360308,-628.8145612,3931.266773,-1104.214854,-7546.055786,59.82,64.87513739,59.7,67.99630137,0,0.043313658,0,0.061429795
202,-5,0.9,2,29.75206612,896,-6794,744,-412,-207,-738,-3166,-8984,164,3992,-1034,-7655,59.82,64.92486261,59.71251781,68.00055829,0,0.049725219,0.01251781,0.004256925
202,-5,0.9,2,30.5785124,362,-9032,1466,-333,-159,-892,-3047,-9033.144519,283.3927039,3889.675613,-907.3544736,-7761.318335,59.82,64.96817627,59.75770405,67.94393433,0,0.043313658,0.045186241,-0.056623967
202,-5,0.9,2,31.40495868,400.9694042,-8781.342158,1408.423529,-355.2908608,-160.2366604,-1074.473598,-2928,-9120,328,3755,-760,-7833,59.82,64.97,59.76,67.84085571,0,0.001823733,0.00229595,-0.103078615
202,-5,0.9,2,32.23140496,498.605475,-8297.350983,1290.847059,-406.2483883,-163.695543,-1269.464202,-3012,-9495.898968,-233.5656009,3694.324387,-629.9306723,-7850.980296,59.81770405,64.97,59.76067383,67.68371647,-0.00229595,0,0.000673828,-0.157139246
202,-5,0.9,2,33.05785124,626,-7982,1196,-462,-169,-1444,-3096,-10012,-978,3666,-558,-7858,59.77251781,64.97,59.80608398,67.48987412,-0.045186241,0,0.045410156,-0.193842345
202,-5,0.9,2,33.88429752,834,-7918,1152,-519,-184,-1581,-2935.617053,-10471.60298,-1323.434399,3730.616812,-678.0765602,-7834.113839,59.76,64.97,59.82,67.32426907,-0.01251781,0,0.013916016,-0.165605048
202,-5,0.9,2,34.7107438,646,-7816,1142,-583,-192,-1767,-2614,-10732,-1486,3823,-874,-7786,59.76,64.97,59.82,67.1927466,0,0,0,-0.131522473
202,-5,0.9,2,35.53719008,338,-8204,1062,-646,-199,-1874,-2172,-10628,-1300,3868,-1021,-7719,59.73,65.005,59.84270073,67.08543143,-0.03,0.035,0.02270073,-0.10731517
202,-5,0.9,2,36.36363636,430,-8062,1054,-715,-206,-2141,-2073.417081,-10752.36161,-859.282511,3853.528391,-1155.50864,-7548.479082,59.7,65.03842773,59.88766261,67.00739427,-0.03,0.033427734,0.044961884,-0.07803716
202,-5,0.9,2,37.19008264,1104,-7692,830,-744,-182,-2332,-2002,-10984,-420,3818,-1271,-7292,59.7,64.9324707,59.93262927,66.94562773,0,-0.105957031,0.044966653,-0.061766544
202,-5,0.9,2,38.01652893,1601.842646,-7602.55042,748.6748518,-779.6259693,-219.51875,-2409.084213,-1896.665322,-11295.24043,-186.1699346,3719.22012,-1351.769562,-6975.46618,59.71391602,64.9,59.97570908,66.89568055,0.013916016,-0.032470703,0.043079808,-0.049947174
202,-5,0.9,2,38.84297521,1956,-7570,716,-810,-269,-2453,-1760,-11524,-76,3551,-1433,-6570,59.75932617,64.9,59.99920729,66.87080167,0.045410156,0,0.023498212,-0.024878879
202,-5,0.9,2,39.66942149,2146.097501,-7667,727.3921162,-824.1928618,-286.1008152,-2475.360857,-1536,-11554,-204,3298,-1554,-6020,59.74904583,64.86166041,60,66.905,-0.010280342,-0.038339594,0.000792713,0.034198325
202,-5,0.9,2,40.49586777,2306,-7764,750,-839,-302,-2495,-1647.420988,-11176.97844,-349.0910729,3016.324506,-1626.264686,-5468.652462,59.72323399,64.77131897,60,66.93732139,-0.025811837,-0.090341431,0,0.032321392
202,-5,0.9,2,41.32231405,2527.669668,-7738.074074,773.2335367,-878.3162027,-325.6019281,-2526.053934,-1918,-10640,-458,2697,-1660,-4929,59.70243092,64.69850822,60,66.88460411,-0.020803072,-0.072810752,0,-0.052717281
202,-5,0.9,2,42.14876033,2760.652769,-7689.925926,805.0682721,-934.4929022,-356.8560301,-2563.062655,-2600,-10382,-496,2300,-1499,-4420,59.7,64.69,60,66.93958008,-0.002430921,-0.008508223,0,0.054975967
202,-5,0.9,2,42.97520661,2920,-7664,856,-979,-401,-2599,-2906.692009,-10659.98501,-233.0190024,1707.106148,-1308.437957,-3442.797569,59.7,64.69,60,67.16663086,0,0,0,0.227050781
202,-5,0.9,2,43.80165289,2988,-8046,1008,-1002,-491,-2631,-3204,-11036,114,1078,-1113,-2196,59.66735599,64.65191533,60.02445509,67.095,-0.032644006,-0.038084673,0.024455093,-0.071630859
202,-5,0.9,2,44.62809917,2822.12176,-8403.775315,1062.991332,-1000.962963,-698.7277175,-2689.548148,-3990.656504,-11156.62392,272.0190024,578.8555531,-947.2710892,-731.4011501,59.64,64.62,60.0624849,67.02,-0.027355994,-0.031915327,0.038029811,-0.075
202,-5,0.9,2,45.45454545,2386.910186,-8767.343581,1099.051221,-999.037037,-962.1416365,-2758.051852,-4568,-11316,346,102,-763,457,59.64,64.62,60.08806989,67.02,0,0,0.025584988,0
202,-5,0.9,2,46.28099174,1776,-9236,1112,-998,-1092,-2791,-2263,-17335.39107,-1258,-490.7904163,-409.3389652,952.5218495,59.64,64.64000407,60.10972002,67.02,0,0.020004071,0.021650126,0
202,-5,0.9,2,47.10743802,526,-10010,48,-1217,-1047,-2776,42,-23218,-2862,-915,-166,1331,59.64,64.68930185,60.11990249,67.02,0,0.049297781,0.010182469,0
202,-5,0.9,2,47.9338843,-242,-10632,-660,-1163,-871,-3119,-4290,-15568,-1114,-1019,-1801,1744,59.64,64.65191533,60.12,66.98700354,0,-0.037386526,9.75E-05,-0.032996462
202,-5,0.9,2,48.76033058,592,-10474,-864,-1185,-766,-3266,-4084,-6566,2128,-23,-1760,2742,59.64,64.62300781,60.12,66.90244755,0,-0.028907514,0,-0.084555992
202,-5,0.9,2,49.58677686,1596.634678,-10015.84389,-318.1158233,-1197.369567,-858.4482759,-3376.225332,-2658,-6048,6400,436,397,2433,59.64,64.6790625,60.12,66.81488312,0,0.056054687,0,-0.087564421
202,-5,0.9,3,50.41322314,2192,-9666,318,-1216,-990,-3511,634.5731928,-6532,5680.611633,311.2844975,1143.765442,2072.415791,59.64,64.66999593,60.12,66.76503229,0,-0.009066571,0,-0.049850838
202,-5,0.9,3,51.23966942,950,-11174,434,-1374,-1053,-3819,3012,-7016,3746,-2,1440,1861,59.64,64.62069815,60.12,66.72539301,0,-0.049297781,0,-0.039639275
202,-5,0.9,3,52.0661157,136,-11878,344,-1445,-966,-4116,3008,-4112,-3514,-895,1326,2275,59.64,64.66152832,60.12,66.65135413,0,0.040830173,0,-0.074038885
202,-5,0.9,3,52.89256198,-513.2337794,-13118.70269,971.9259259,-1381.112051,-1132.455308,-4344.969629,8568,-4040,-7430,-1786,56,3109,59.64,64.68481481,60.12257813,66.54772903,0,0.023286495,0.002578125,-0.103625097
202,-5,0.9,3,53.71900826,-1064.207978,-14550.46246,2138.074074,-1259.446324,-1452.688394,-4548.371637,5050.122034,-7024.143092,-5670.17979,-1244.842857,-604.8493976,3700.144042,59.64,64.63320302,60.170625,66.41412831,0,-0.051611797,0.048046875,-0.133600716
202,-5,0.9,3,54.54545455,-1342,-15236,2766,-1185,-1658,-4782,-328,-10630,-2240,-544,-900,4125,59.64,64.63623535,60.18,66.2282319,0,0.003032334,0.009375,-0.185896416
202,-5,0.9,3,55.37190083,-1394,-14628,1306,-1175,-1696,-5095,-3618,-11460,2098,-314,-365,4368,59.64,64.68921387,60.18,65.99970185,0,0.052978516,0,-0.228530046
202,-5,0.9,3,56.19834711,-809.2229322,-13307.98888,1143.827757,-1070.02838,-1872.752718,-5233.680288,-2626.074074,-9669.555556,1250.740741,-728.2962963,-51.82548891,4611.851308,59.64,64.69,60.18,65.82352057,0,0.000786133,0,-0.176181283
202,-5,0.9,3,57.02479339,384,-11970,1008,-958,-2114,-5343,-783.9259259,-6344.444444,-322.7407407,-1497.703704,184.5317,4837.036765,59.64,64.69,60.18,65.6531047,0,0,0,-0.170415865
202,-5,0.9,3,57.85123967,1921.35397,-11149.71675,263.8419471,-932.2806324,-2323.097728,-5457.518851,208,-4554,-1170,-1912,278,4936,59.64,64.69,60.18,65.45770475,0,0,0,-0.195399954
202,-5,0.9,3,58.67768595,4240,-10748,-358,-922,-2458,-5607,-930.6666667,-5452.592593,-824.1481481,-1778.855457,210.8518519,4820.120226,59.64,64.70431644,60.18,65.34345658,0,0.014316437,0,-0.114248172
202,-5,0.9,3,59.50413223,8538,-15128,612,-959,-2483,-5936,-3045.333333,-7121.407407,-181.8518519,-1507.044248,86.14814815,4555.351563,59.64,64.76,60.18,65.26853905,0,0.055683563,0,-0.074917528
202,-5,0.9,4,60.33057851,8429.013692,-14953.51834,2368.989142,-1135.684062,-2651.521369,-5481.224657,-4184,-8020,164,-1288,19,4266,59.64,64.83226244,60.18,65.16817155,0,0.072262445,0,-0.100367502
202,-5,0.9,4,61.15702479,8094,-14450,4052,-1360,-2935,-4662,-3771.259259,-7949.481481,115.2437626,-1179.902869,28.75015694,3965.567052,59.64,64.91672642,60.17555556,65.09326829,0,0.084463974,-0.004444444,-0.074903255
202,-5,0.9,4,61.98347107,5450,-11786,4858,-1489,-3258,-3838,-3004.740741,-7818.518519,9.598636293,-1095.483221,48.27809165,3630.828116,59.64,65.0046211,60.13131687,65.04764358,0,0.087894685,-0.044238683,-0.045624711
202,-5,0.9,4,62.80991736,2362.592349,-8053.283804,4325.708688,-1474.400745,-3744.674722,-2218.716399,-2592,-7748,-92,-1008,63,3331,59.64,65.09015108,60.12,65.09102539,0,0.085529981,-0.011316872,0.04338181
202,-5,0.9,4,63.63636364,552,-4274,3160,-1437,-4055,-1100,-2719.124575,-7832,-184.7838215,-900.8997267,69.09227872,3096.984648,59.64,65.18,60.12,65.2575293,0,0.089848916,0,0.166503906
202,-5,0.9,4,64.46280992,1146.740741,-801.4316533,345.0364067,-1220.803581,-3451.561498,-1125.666667,-2980.026927,-7988,-274.0585774,-790.4185819,73.54613936,2887.836255,59.64,65.32135083,60.12,65.26,0,0.141350826,0,0.002470703
202,-5,0.9,4,65.2892562,2251.259259,2345.061951,-3555.592908,-815.2313702,-2139.234107,-1173.333333,-3194,-8072,-314,-699,78,2665,59.64,65.41603108,60.12,65.26,0,0.09468025,0,0
202,-5,0.9,4,66.11570248,2846,3716,-5526,-448,-865,-1199,-3326.02842,-7966.6875,-187.3117978,-632.2090374,83.9375,2412.953106,59.64,65.45154711,60.12,65.26,0,0.035516036,0,0
202,-5,0.9,4,66.94214876,-322,2206,-4910,-206,104,-812,-3447.136374,-7735,103.1685393,-576.2969221,90.5,2145.40674,59.64,65.50999236,60.12,65.2346875,0,0.058445249,0,-0.0253125
202,-5,0.9,4,67.76859504,1054,-970,-1990,502,1066,154,-3535.67614,-7503.3125,423.0646067,-524.7363458,95.8125,1867.657005,59.64,65.61,60.12,65.18,0,0.100007639,0,-0.0546875
202,-5,0.9,4,68.59504132,1003.0625,-1417.856346,-946.2563601,741.7938601,1365.848054,1041.201553,-3570,-7398,638,-471,98,1585,59.60214126,65.81020319,60.12,65.28315746,-0.037858742,0.200203186,0,0.103157457
202,-5,0.9,4,69.4214876,891,-1710.427864,-171.7278757,899.2526253,1563.066392,1893.719595,-3164,-7702,726,-414,71,1292,59.58,66.05856962,60.12,65.42158181,-0.022141258,0.248366431,0,0.138424357
202,-5,0.9,4,70.24793388,778.9375,-1869.785449,310.1645466,1015.085078,1701.251535,2681.62784,-3048,-8100,466,-408,119,1157,59.58,66.32610621,60.12,65.52574926,0,0.267536593,0,0.104167442
202,-5,0.9,4,71.07438017,728,-1918,476,1130,1824,3375,-2920.650924,-7891,566,-373.2175183,143.893617,1012.834709,59.58,66.35,60.12,65.49570313,0,0.02389379,0,-0.030046131
202,-5,0.9,4,71.90082645,1182,-1540,-494,1244,1931,3933,-2752,-7682,666,-337,155,901,59.58,66.35,60.12,65.4,0,0,0,-0.095703125
202,-5,0.9,4,72.72727273,1649.655837,-1068.611275,-1204.73453,1447.449647,2056.382901,4431.773079,-2447.708369,-7736.56389,500,-330.0084387,136,847.5542678,59.60729004,66.2817749,60.12,65.4,0.027290039,-0.068225098,0,0
202,-5,0.9,4,73.55371901,2144,-786,-1560,1721,2130,4942,-2018,-7868,334,-322,117,810,59.65296387,66.16759033,60.12,65.4,0.045673828,-0.11418457,0,0
202,-5,0.9,4,74.38016529,2698,-1198,-1322,2068,2098,5547,-1436,-8190,520,-267,121,780,59.69617676,66.05955811,60.12,65.4,0.043212891,-0.108032227,0,0
202,-5,0.9,4,75.20661157,2558.457341,-2050.379843,-810.3707344,2351.583073,1828.860973,6132.906475,-1600,-7634,766,-240,102,834,59.7,66.16070629,60.10101563,65.33603768,0.003823242,0.101148184,-0.018984375,-0.063962324
202,-5,0.9,4,76.03305785,2278,-3058,-214,2568,1378,6698,-1792,-7792,810,-288,91,901,59.7,66.35,60.06,65.18,0,0.189293711,-0.041015625,-0.156037676
202,-5,0.9,4,76.85950413,1890,-3866,232,2694,900,7229,-1873.68242,-7615.959485,1029.874055,-329.8576699,118.2799923,949.100137,59.72503562,66.27280684,60.06,65.14510512,0.02503562,-0.077193161,0,-0.034894884
202,-5,0.9,4,77.68595041,1968.125,-4853.926545,-204.25,2782.466418,484.6718099,7629.456206,-1908,-7430,1216,-373,160,1000,59.77571748,66.11653776,60.06,65.12156693,0.050681864,-0.156269082,0,-0.023538181
202,-5,0.9,4,78.51239669,2140,-5958.508482,-1164,2852.910448,90.79764453,7979.74163,-1894.910594,-7411.508841,1214.990519,-424.1437686,187.4982355,1074.786605,59.8154081,65.99415836,60.06,65.11063473,0.039690617,-0.122379402,0,-0.010932205
202,-5,0.9,4,79.33884298,2311.875,-7013.836179,-2123.75,2927.899254,-240.2253431,8285.156238,-1859.020285,-7395.596388,1211.982398,-480.8347518,212.5684737,1169.538432,59.82,65.98,60.06,65.12622933,0.004591899,-0.014158355,0,0.015594601
202,-5,0.9,4,80.16528926,2390,-7854,-2560,3030,-467,8551,-1805.395943,-7382.090363,1207.006118,-541.8385359,235.714104,1280.347967,59.82,65.98,60.06,65.17546388,0,0,0,0.049234546
202,-5,0.9,4,80.99173554,2241,-8392.166839,-1760,3257.294776,-620.2128601,8819.456249,-1739.104433,-7370.818485,1200.092161,-605.9207072,257.438516,1403.307696,59.86101563,66.07570313,60.06,65.23501608,0.041015625,0.095703125,0,0.059552199
202,-5,0.9,4,81.81818182,2092,-8932,-960,3423,-693,8964,-1665.212622,-7361.608475,1191.27101,-671.8468521,278.245099,1534.510103,59.88,66.12,60.06,65.25261719,0.018984375,0.044296875,0,0.017601111
202,-5,0.9,4,82.6446281,2282.296296,-9991.012436,-965.2360234,3398.005806,-657.9946268,8910.023301,-1588.787378,-7354.288054,1180.573146,-738.3825568,298.6372426,1670.047676,59.88,66.12,60.06,65.18738281,0,0,0,-0.065234375
202,-5,0.9,4,83.47107438,2635.703704,-11244.72844,-981.1387135,3337.900502,-566.7670313,8778.713268,-1514.895567,-7348.684943,1168.029051,-804.2934078,319.1183362,1806.012898,59.90214126,66.12,60.06,65.22546882,0.022141258,0,0,0.038086007
202,-5,0.9,4,84.29752066,2826,-11850,-1008,3265,-440,8616,-1448.604057,-7344.626861,1153.669207,-868.3449912,340.1917692,1938.498256,59.94,66.12,60.06,65.33,0.037858742,0,0,0.104531181
202,-5,0.9,4,85.12396694,2696.013816,-11740.96095,-1251.971015,3175.039984,-193.0989936,8375.282289,-1394.979715,-7341.94153,1137.524096,-929.3028935,362.3609312,2063.596236,59.94,66.07583147,60.06,65.37299629,0,-0.044168532,0,0.042996292
202,-5,0.9,4,85.95041322,2396,-11470,-1650,3054,176,8110,-1359.089406,-7340.456669,1119.624199,-985.932701,386.1292117,2177.399322,59.94553711,66.05645996,60.06,65.43114467,0.005537109,-0.019371507,0,0.058148374
202,-5,0.9,4,86.7768595,1760,-10728,-2008,2883,649,7922,-1346,-7340,1100,-1037,412,2276,59.99446289,66.11354004,60.06,65.52618243,0.048925781,0.057080078,0,0.09503776
202,-5,0.9,4,87.60330579,1437.75224,-10731.23389,-1972.238896,2771.112663,1217.551923,7720.614115,-1394.010974,-7391.794417,1030.734862,-1081.118112,439.082093,2366.37488,60,66.08291794,60.05696326,65.54,0.005537109,-0.030622104,-0.003036745,0.013817573
202,-5,0.9,4,88.42975207,1156.438422,-10741.81511,-1872.186689,2684.20594,1868.87702,7512.744667,-1522.680384,-7531.30515,879.8683128,-1119.170227,466.4623912,2456.894573,60,65.96730313,60.04045187,65.54,0,-0.115614805,-0.016511383,0
202,-5,0.9,4,89.25619835,923.9324188,-10761.06299,-1718.690037,2609.61057,2542.579834,7298.570094,-1708.962963,-7734.723424,671.3650794,-1153.326738,494.6114394,2545.742564,60,65.77560717,60.01378477,65.54,0,-0.191695965,-0.026667101,0
202,-5,0.9,4,90.08264463,748.1081,-10790.29688,-1522.595599,2534.657296,3178.264907,7078.268833,-1929.813443,-7978.240464,429.1898883,-1185.758034,523.9997828,2631.102339,60.0084022,65.66577006,59.98175844,65.54,0.008402198,-0.109837105,-0.032026328,0
202,-5,0.9,4,90.90909091,636.8393368,-10830.8361,-1294.750034,2446.676859,3715.536782,6852.019323,-2162.186557,-8238.047494,177.3074662,-1218.634508,555.0979663,2711.157385,60.05505394,65.62533092,59.94916938,65.54,0.04665174,-0.040439145,-0.032589065,0
202,-5,0.9,4,91.73553719,598,-10884,-1046,2333,4094,6620,-2383.037037,-8490.335738,-60.31746032,-1254.126551,588.3765347,2784.091188,60.06,65.56464475,59.91862306,65.56583147,0.004946061,-0.06068617,-0.030546317,0.025831468
202,-5,0.9,4,92.56198347,828.6323595,-11776.979,-613.1986547,2171.636479,4367.731768,6403.100825,-2569.319616,-8711.29642,-259.7201646,-1294.404553,624.3060332,2848.087234,60.06,65.48597503,59.88,65.61,0,-0.078669714,-0.03862306,0.044168532
202,-5,0.9,4,93.38842975,1288,-12640,-158,1957,4502,6121,-2697.989026,-8877.120766,-396.93592,-1341.638905,663.3570066,2901.329009,60.06,65.39249568,59.79630368,65.61,0,-0.093479355,-0.083696316,0
202,-5,0.9,4,94.21487603,1945.993087,-12612.72838,141.5028969,1640.872509,4336.001129,5447.754707,-2746,-8964,-448,-1398,706,2942,60.06,65.2787181,59.76437106,65.60354004,0,-0.113777572,-0.031932619,-0.006459961
202,-5,0.9,4,95.04132231,2921.716882,-12529.80087,432.7415015,1201.137921,3886.414587,4274.816784,-2741.324561,-8991.378939,-190.9622763,-1488.983309,757.2992914,2967.011219,60.06,65.13213896,59.80941003,65.54645996,0,-0.146579141,0.045038966,-0.057080078
202,-5,0.9,4,95.8677686,4090.199877,-12389.54851,705.9546891,688.8858552,3225.855475,2776.639016,-2728.649123,-9009.333153,292.7421141,-1605.534665,819.0902373,2985.724597,60.06,65.03586897,59.83804012,65.54454778,0,-0.096269993,0.02863009,-0.00191218
202,-5,0.9,4,96.69421488,5326.470562,-12190.30232,951.3813347,155.2059298,2426.938898,1127.674189,-2710,-9040,572,-1698,887,3015,60.06,64.95476022,59.86155923,65.56365111,0,-0.081108746,0.023519107,0.019103327
202,-5,0.9,4,97.52066116,6505.557426,-11930.39335,1159.260313,-348.8122369,1562.279959,-497.624911,-2620.351101,-9269.905051,597.3921456,-1755.956786,973.4200638,3098.668478,60.06,64.88469959,59.87704808,65.59165958,0,-0.070060634,0.015488855,0.028008475
202,-5,0.9,4,98.34710744,7502.488961,-11608.15261,1319.830501,-772.0790263,704.4937604,-1924.8055,-2409.115335,-9816.6709,610.9034304,-1804.167092,1082.306571,3257.948415,60.06,64.82376833,59.8715978,65.62516983,0,-0.060931261,-0.005450281,0.03351025
202,-5,0.9,4,99.17355372,8192.293655,-11221.91115,1423.330771,-1063.50482,-73.80459363,-2979.414791,-2099.977522,-10599.08043,618.5268563,-1845.753741,1196.633669,3475.780672,60.06,64.7700477,59.82494606,65.67579756,0,-0.053720629,-0.04665174,0.050627725
202,-5,0.9,4,100,8450,-10770,1460,-1172,-700,-3487,-1716.622482,-11535.91654,626.2554252,-1883.83956,1299.375507,3735.106113,60.06,64.71693304,59.82,65.71566592,0,-0.053114655,-0.004946061,0.039868364
202,-5,0.9,1,0,4231.851852,-8731.198967,-503.6296296,-1096.017538,-1292.306177,-3612.139775,-1282.735035,-12545.9621,640.0821392,-1921.547371,1373.506235,4018.865602,60.05940159,64.69,59.82,65.76,-0.000598412,-0.026933044,0,0.044334077
202,-5,0.9,1,0.81300813,-3601.851852,-5453.26615,-4150.37037,-916.2572983,-1841.319755,-3691.998056,-822,-13548,666,-1962,1402,4310,60.01714635,64.69,59.82,65.91242596,-0.042255241,0,0,0.152425957
202,-5,0.9,1,1.62601626,-7820,-3738,-6114,-705,-2083,-3811,-24.69753086,-14965.24224,1082.427156,-2003.767362,1310.878431,4689.622662,60,64.68325174,59.82,65.99077274,-0.017146346,-0.006748259,0,0.078346785
202,-5,0.9,1,2.43902439,-6432.061311,-5794.444444,-4732.918128,-468.1454405,-1361.481481,-4148.481996,967.5401235,-16580.06556,1820.213578,-2044.957405,1136.867974,5141.155007,60,64.63440469,59.82,66.01000787,0,-0.048847048,0,0.019235127
202,-5,0.9,1,3.25203252,-3060.122621,-9613.555556,-1539.391812,-172.3434952,-21.51851852,-4618.375885,1454,-17350,2214,-2088,1029,5501,59.9755957,64.58212914,59.82,66.02182952,-0.024404297,-0.052275557,0,0.011821655
202,-5,0.9,1,4.06504065,1108,-11670,2042,169,700,-4907,362,-15822,806,-2135,1013,5709,59.94,64.55,59.82,66.03071502,-0.035595703,-0.032129136,0,0.008885499
202,-5,0.9,1,4.87804878,6954,-7394,5938,601,-453,-4968,-2542,-13744,-92,-2095,1204,5871,59.94,64.55,59.82,66.04114168,0,0,0,0.01042666
202,-5,0.9,1,5.691056911,8684,-5458,4224,-646,-663,-4610,-6170.582081,-13780.90789,80.91060851,-2160.007519,1434.488152,6149.235946,59.94,64.55,59.82,66.05682204,0,0,0,0.015680362
202,-5,0.9,1,6.504065041,7896.5,-5712.092952,2431.217831,-647.5224869,-503.9375,-4710.15625,-9254,-13846,504,-2226,1696,6334,59.94,64.55,59.82,66.07462461,0,0,0,0.017802567
202,-5,0.9,1,7.317073171,6164,-6335.414537,555.4714055,-648.436655,-154,-4930.5,-11176.64302,-13923.09211,1985.353274,-2227.492481,1964.644,5727.368869,59.93421578,64.55674826,59.82,66.09576753,-0.005784222,0.006748259,0,0.021142921
202,-5,0.9,2,8.130081301,4431.5,-7119.528855,-922.5107229,-648.8824956,195.9375,-5150.84375,-12100,-13972,3622,-2228,2315,4616,59.915512,64.57856934,59.82,66.12325409,-0.01870378,0.021821077,0,0.027486563
202,-5,0.9,2,8.943089431,3644,-7856,-1522,-649,355,-5251,-9112,-11056,4208,-2193,2969,3442,59.89234688,64.60559531,59.82,66.17028022,-0.023165118,0.027025971,0,0.047026123
202,-5,0.9,2,9.756097561,4146,-8532,792,-535,-80,-4547,-3416,-8546,5738,-1931,3478,1964,59.87185199,64.62950601,59.82,66.21594168,-0.020494892,0.023910707,0,0.045661462
202,-5,0.9,2,10.56910569,5312,-7374,1140,-499,-150,-4179,-3506.182604,-4869.482021,4471.99268,-1214.516443,3344.036057,233.6460437,59.84753926,64.65787086,59.82,66.25445637,-0.024312728,0.02836485,0,0.038514695
202,-5,0.9,2,11.38211382,4628,-8046,1212,-545,-102,-3604,-3782,-656,2040,-580,3005,-782,59.82664689,64.68224529,59.82,66.32758441,-0.020892368,0.024374429,0,0.073128035
202,-5,0.9,2,12.19512195,4112.298546,-7822,312,-508.0808766,-102,-3155.775542,-5880,3516,-908,-455,2011,-189,59.82,64.69,59.81932617,66.4294656,-0.006646892,0.007754708,-0.000673828,0.101881187
202,-5,0.9,2,13.00813008,3852,-7598,-588,-435,-102,-2754,-3030,4744,-3126,-246,927,-239,59.82,64.69,59.77391602,66.52677908,0,0,-0.045410156,0.097313485
202,-5,0.9,2,13.82113821,4022.074074,-7647.259259,-289.657687,-314.9673304,-95.77777778,-2370.035967,-500,3278,-3426,66,430,-566,59.82,64.68149178,59.76,66.60799321,0,-0.008508223,-0.013916016,0.081214124
202,-5,0.9,2,14.63414634,4337.925926,-7738.740741,297.573515,-167.8169985,-84.22222222,-2000.384865,-424.9750785,2186.281421,-2824.4375,429.9122958,378.2286589,-1162.24402,59.82,64.60868103,59.76,66.67754675,0,-0.072810752,0,0.069553542
202,-5,0.9,2,15.44715447,4508,-7788,712,-96,-78,-1606,-379.1445143,1229.982466,-1501,827.2498748,355.9705378,-1984.757606,59.82,64.51833959,59.76,66.73957245,0,-0.090341431,0,0.062025704
202,-5,0.9,2,16.2601626,4036,-7714,834,-97,-133,-1155,-356.2416928,420.6922773,-177.5625,1232.212516,337.7271478,-2852.892389,59.82,64.48212986,59.76,66.79529044,0,-0.036209738,0,0.055717986
202,-5,0.9,2,17.07317073,3531.45854,-8056,427,-75.51951673,-135.3159341,-833.4211739,-350,-230,424,1619,298,-3586,59.82,64.63207609,59.76,66.84308905,0,0.149946238,0,0.047798616
202,-5,0.9,2,17.88617886,3016,-8398,20,-39,-136,-611,-361.429073,-718.1329261,156.3632477,1985.813583,142.5236186,-4159.557332,59.82,64.70828432,59.76,66.8869445,0,0.07620822,0,0.043855443
202,-5,0.9,2,18.69918699,2506,-7972,102,-8,-107,-500,-397.9775281,-1103.990863,-440.1980062,2345.319722,-149.8851607,-4678.524985,59.82,64.73712271,59.76,66.92942571,0,0.028838397,0,0.042481217
202,-5,0.9,2,19.51219512,2130,-7834,752,17,-83,-356,-463.0372191,-1472.353368,-1056.160257,2693.416001,-495.1013597,-5156.480145,59.82,64.75471468,59.76,66.98939542,0,0.017591966,0,0.059969706
202,-5,0.9,2,20.32520325,1586,-8656,922,5,-102,-259,-560,-1908,-1382,3026,-809,-5607,59.82,64.75921387,59.76,67.06423923,0,0.00449919,0,0.074843814
202,-5,0.9,2,21.13821138,1589,-8081,836,-21.95113902,-84,-246.9205607,-1082,-2476,-1432,3333,-1075,-6014,59.82,64.70623535,59.76,67.15350898,0,-0.052978516,0,0.089269747
202,-5,0.9,2,21.95121951,1592,-7506,750,-49,-66,-243,-1058,-3022.81639,-1338.632813,3591.373296,-1261.136064,-6219.312937,59.83391602,64.69,59.76,67.25706633,0.013916016,-0.016235352,0,0.103557346
202,-5,0.9,2,22.76422764,1371.974478,-7888,750.4394042,-60.84988326,-71,-266.0060976,-1034,-3604,-1160,3794,-1384,-6388,59.87932617,64.69,59.76,67.37477294,0.045410156,0,0,0.117706612
202,-5,0.9,2,23.57723577,1126,-8270,752,-72,-76,-320,-1102,-4310,-946,3918,-1437,-6588,59.88,64.72808467,59.76,67.52450666,0.000673828,0.038084673,0,0.149733716
202,-5,0.9,2,24.3902439,1094,-7928,1120,-91,-70,-441,-1252,-5054,-812,4065,-1359,-6899,59.87770405,64.75578262,59.76,67.72191618,-0.00229595,0.027697944,0,0.197409527
202,-5,0.9,2,25.20325203,1038.282415,-7913.479191,1126.07455,-113.5869666,-79.28846154,-540.9983167,-1488.480982,-6074.433499,-855.4375,4142.497621,-1356.117223,-7096.928074,59.83251781,64.66288622,59.76,68.0019632,-0.045186241,-0.092896397,0,0.280047014
202,-5,0.9,2,26.01626016,976,-7902,1130,-139,-93,-637,-1789.297272,-7279.671028,-951,4205.747885,-1354.96182,-7256.862188,59.82,64.59171789,59.74608398,68.12816489,-0.01251781,-0.071168329,-0.013916016,0.126201698
202,-5,0.9,2,26.82926829,914.9778335,-7816.071111,1136.142796,-160.6651997,-102.3760684,-735.348654,-2085.464925,-8373.073043,-1046.5625,4248.374207,-1354.075507,-7392.615207,59.82,64.55153877,59.70067383,68.16958777,0,-0.040179117,-0.045410156,0.041422872
202,-5,0.9,2,27.64227642,857.4889168,-7679.368889,1145.331864,-184.8253489,-110.5213675,-836.6455914,-2308,-9058,-1090,4264,-1352,-7518,59.82,64.57172812,59.7,68.17,0,0.020189345,-0.000673828,0.000412234
202,-5,0.9,2,28.45528455,832,-7608,1164,-230,-114,-955,-2470.759425,-9396.392393,-1088.24834,4256.757467,-1315.447924,-7648.967499,59.82,64.6418514,59.7,68.16886004,0,0.07012328,0,-0.001139964
202,-5,0.9,2,29.26829268,1470,-8652,1410,-470,-103,-1114,-2628.680607,-9661.403134,-1083.072698,4237.477271,-1226.260439,-7785.911776,59.82,64.72834595,59.7,68.07360477,0,0.086494553,0,-0.095255263
202,-5,0.9,2,30.08130081,1265.185185,-8650.495173,1236.245471,-468.962963,-122.7037037,-1230.714955,-2774.400322,-9873.211308,-1074.592081,4209.830516,-1105.672062,-7919.310407,59.82,64.8185716,59.70225929,67.9504709,0,0.090225651,0.002259285,-0.123133868
202,-5,0.9,2,30.89430894,884.8148148,-8644.990346,912.2687195,-467.037037,-159.2962963,-1333.314742,-2900.555343,-10051.996,-1062.925495,4177.488306,-974.9173121,-8039.640968,59.82,64.89901282,59.71850913,67.81425247,0,0.080441214,0.016249844,-0.136218433
202,-5,0.9,2,31.70731707,680,-8634,734,-466,-179,-1466,-2999.782447,-10217.93629,-1048.191949,4144.121748,-855.2307063,-8137.381037,59.81848799,64.8992934,59.74634637,67.66332272,-0.001512012,0.000280581,0.027837237,-0.150929749
202,-5,0.9,2,32.5203252,726,-7938,730,-495,-177,-1690,-3064.718408,-10391.21126,-1030.510448,4113.401944,-767.8467629,-8203.008189,59.81354032,64.8968781,59.78090583,67.50748447,-0.004947672,-0.002415302,0.034559462,-0.155838256
202,-5,0.9,2,33.33333333,807.1261541,-7827.333365,797.9259259,-543.5098241,-186.1915546,-1882.535159,-3088,-10592,-1010,4089,-734,-8227,59.80560132,64.89279062,59.81732235,67.35654051,-0.007939,-0.004087474,0.036416521,-0.150943954
202,-5,0.9,2,34.14634146,931.7526042,-7771.832797,924.0740741,-602.9849396,-205.8275537,-2057.208956,-2898.222222,-10844.92036,-952.5367871,4072.704503,-823.2592593,-8198.693465,59.79513476,64.8870763,59.85073076,67.22029367,-0.010466557,-0.005714318,0.033408413,-0.136246843
202,-5,0.9,2,34.95934959,1110,-7708,992,-651,-224,-2207,-2423.777778,-11136.09362,-832.9869446,4061.302382,-1046.407407,-8115.974643,59.78260442,64.87978047,59.8762659,67.10854675,-0.012530341,-0.007295835,0.025535138,-0.111746924
202,-5,0.9,2,35.77235772,1488.956649,-7581.708748,865.971464,-679.683555,-234.3339361,-2334.620056,-1807,-11427.95399,-664.9544086,4050.962254,-1336.5,-7982.14471,59.76847406,64.87094845,59.89384462,67.02016867,-0.014130354,-0.008832023,0.017578721,-0.088378081
202,-5,0.9,2,36.58536585,2036,-7500,678,-705,-248,-2434,-1190.222222,-11682.9357,-462.0431152,4037.852736,-1626.592593,-7800.504841,59.75320747,64.86062556,59.91106737,66.93696672,-0.015266595,-0.010322884,0.017222754,-0.083201949
202,-5,0.9,2,37.39837398,2670,-7978,572,-734,-292,-2497,-715.7777778,-11863.47296,-237.8570003,4018.142446,-1849.740741,-7574.356213,59.73726841,64.84885714,59.92815554,66.85804537,-0.015939064,-0.011768417,0.017088166,-0.078921348
202,-5,0.9,2,38.21138211,2838.504927,-7820.888889,655.5638243,-755.1983976,-339.2874633,-2490.56122,-526,-11932,-6,3988,-1939,-7307,59.72112064,64.83568852,59.94506375,66.78312524,-0.016147761,-0.013168623,0.016908212,-0.074920127
202,-5,0.9,2,39.02439024,2929.239572,-7529.111111,845.7943152,-772.9189898,-395.3528713,-2476.344662,-790.639552,-11911.25926,313.6286678,3639.723611,-1872.627063,-6720.710794,59.70522796,64.82116502,59.96174665,66.71192696,-0.015892687,-0.0145235,0.016682892,-0.071198284
202,-5,0.9,2,39.83739837,3090,-7372,1052,-787,-483,-2462,-1413.945771,-11872.74074,700.929915,2901.204322,-1726.920792,-5695.216886,59.69005412,64.80533197,59.97815885,66.64417114,-0.01517384,-0.01583305,0.016412206,-0.06775582
202,-5,0.9,2,40.6504065,3618,-8296,1258,-797,-720,-2450,-2140,-11852,992,2122,-1582,-4470,59.6760629,64.7882347,59.99425501,66.57957841,-0.013991222,-0.017097272,0.016096154,-0.064592734
202,-5,0.9,2,41.46341463,2302.910352,-8943.319588,1237.706303,-889.2988857,-719.1850225,-2400.040835,-3202.054229,-12721.55556,1121.925046,1321.456072,-1485.170173,-2758.783031,59.66371806,64.76991853,60.00998974,66.51786938,-0.012344832,-0.018316167,0.015734735,-0.061709027
202,-5,0.9,2,42.27642276,964,-9262,1186,-1010,-717,-2359,-4449.360448,-14336.44444,1213.859031,471.3749554,-1389.110424,-662.6223727,59.65348339,64.7504288,60.02531769,66.45876468,-0.010234671,-0.019489733,0.015327951,-0.059104698
202,-5,0.9,2,43.08943089,935.5858587,-9125.62963,828.8184249,-1071.594496,-677.1525526,-2444.325646,-5050,-15206,1386,-150,-1232,998,59.64582265,64.72981083,60.04019349,66.40198493,-0.007660737,-0.020617972,0.0148758,-0.056779748
202,-5,0.9,2,43.90243902,923.8215439,-8872.37037,231.2981013,-1120.380004,-606.0207208,-2647.206847,-5040,-11334,2114,-463,-758,1929,59.64119962,64.70810994,60.05457178,66.34725076,-0.004623032,-0.021700884,0.014378284,-0.054734177
202,-5,0.9,2,44.71544715,896,-8736,-84,-1173,-568,-2888,-4011.913187,-14683.0625,779.9375,-813.5908481,-757.597819,1825.5625,59.64,64.68346376,60.06840718,66.29428277,-0.001199623,-0.024646183,0.013835401,-0.052967985
202,-5,0.9,2,45.52845528,702,-9630,554,-1238,-675,-3191,-1771.700611,-22051,-2155,-1191.358532,-757.4686901,1598,59.64,64.62920929,60.08165433,66.2428016,0,-0.054254469,0.013247152,-0.051481171
202,-5,0.9,2,46.34146341,958.3509934,-9800.124024,135,-1308.035047,-725.1821156,-3422.63623,464.3622709,-29418.9375,-5089.9375,-1493.446949,-757.355216,1370.4375,59.64,64.62,60.09426786,66.19252786,0,-0.009209291,0.012613537,-0.050273735
202,-5,0.9,2,47.15447154,1314,-9964,-284,-1348,-762,-3636,1480,-32768,-6424,-1617,-757,1267,59.64,64.62,60.10620242,66.14318219,0,0,0.011934556,-0.049345679
202,-5,0.9,2,47.96747967,1510.649007,-11202.03116,-186.2228381,-1249.156355,-805.5419355,-3859.387023,227.0857922,-15896,1518,210,-590.7271755,2154,59.64,64.62,60.11741263,66.09448519,0,0,0.011210209,-0.048697001
202,-5,0.9,2,48.7804878,1608,-12294,26,-1106,-830,-4089,-1812,976,9460,2037,-185,3041,59.64,64.62,60.12785313,66.04615748,0,0,0.010440496,-0.048327701
202,-5,0.9,2,49.59349593,4,-11074,396,-1033,-770,-4335,-3330,-3212,3526,667,860,2237,59.64,64.62,60.13747854,65.9979197,0,0,0.009625416,-0.04823778
202,-5,0.9,3,50.40650407,128,-12431.61607,643.1457232,-1041.5,-924.5108481,-4586.98401,5018,-4410,1968,-691,1527,727,59.64,64.62,60.14624351,65.94949247,0,0,0.008764971,-0.048427238
202,-5,0.9,3,51.2195122,252,-14630,936,-1050,-1131,-4854,9236.893781,-7102.958118,-6330.369103,-1245.034091,-96.5,1826.572725,59.64,64.62,60.15410267,65.90059639,0,0,0.007859159,-0.048896074
202,-5,0.9,3,52.03252033,-779,-16645.38393,1882.280072,-1034.5,-1206.207529,-5184.94064,11104,-10186,-13422,-1475,-1720,3255,59.64,64.62,60.16101065,65.8509521,0,0,0.006907982,-0.049644289
202,-5,0.9,3,52.84552846,-1810,-17820,2624,-1019,-1277,-5471,2259,-12837.81538,-5033.452923,-541,-1100.265283,3799.994783,59.64,64.62,60.16692209,65.80028022,0,0,0.005911438,-0.050671883
202,-5,0.9,3,53.65853659,-1432.735553,-15724.70811,2093.216037,-1025.622642,-1420.977237,-5638.194938,-6586,-14290,3866,393,-152,4144,59.64,64.62,60.17179162,65.74830136,0,0,0.004869528,-0.051978855
202,-5,0.9,3,54.47154472,-536,-12744,1074,-1046,-1550,-5750,-5217,-10837,4664.452923,-509.6540373,577.7652834,4304.951848,59.64,64.62,60.17557387,65.69473616,0,0,0.003782253,-0.053565206
202,-5,0.9,3,55.28455285,1562,-11318,-160,-1208,-1596,-5811,-3848,-7384,4952,-1606,979,4503,59.64,64.62,60.17822348,65.63930522,0,0,0.002649611,-0.055430936
202,-5,0.9,3,56.09756098,2940,-12266,-1012,-1156,-1498,-5989,-7554,-11034,1354,-1866,-134,5504,59.64,64.64072797,60.17969509,65.58172918,0,0.020727969,0.001471603,-0.057576044
202,-5,0.9,3,56.91056911,5549.480993,-13163.04497,26.11425839,-1161.423347,-1599.884598,-5886.265549,-5150,-8702,-1054.38205,-1567.843672,-207.6189258,5528.053197,59.64,64.70289442,60.17868105,65.52213625,0,0.062166453,-0.001014036,-0.059592926
202,-5,0.9,3,57.72357724,8641.07383,-13972.18915,2139.339628,-1177.513361,-1847.102529,-5613.086655,-2746,-6370,-2222,-1211,-230,5535,59.64,64.79101569,60.16039284,65.46480803,0,0.08812127,-0.018288215,-0.057328222
202,-5,0.9,4,58.53658537,10134,-14324,3826,-1204,-2152,-5222,-3601,-7015,-655.4565776,-1110.156328,-8,4979.893484,59.64,64.93228266,60.13477712,65.40558701,0,0.141266969,-0.025615713,-0.059221016
202,-5,0.9,4,59.3495935,8270,-12158,4584,-1308,-2577,-4367,-4456,-7660,1140,-1068,214,4226,59.64,65.11,60.12015266,65.33755429,0,0.177717338,-0.014624466,-0.06803272
202,-5,0.9,4,60.16260163,3348.223377,-8843.913723,4574.377294,-1349.874551,-3127.097826,-2668.212937,-4111,-7489,1519.456578,-1084.074945,127,3934.025704,59.64,65.15490456,60.12,65.22785783,0,0.04490456,-0.000152656,-0.109696468
202,-5,0.9,4,60.97560976,-328,-4890,4546,-1375,-3461,-1178,-3766,-7318,1670,-1113,40,3655,59.64,65.19285458,60.12,65.18,0,0.037950025,0,-0.047857826
202,-5,0.9,4,61.78861789,3761,-109.7586045,3627.816468,-1394.559896,-3422.58664,-597.0380502,-3858,-7546,906,-1142,144,3165,59.64,65.23759881,60.12,65.18,0,0.044744224,0,0
202,-5,0.9,4,62.60162602,7850,3618,1642,-1404,-3296,-346,-3687,-7617.97669,-90.63484793,-1062.767824,88.5,2867.033513,59.64,65.30430413,60.12,65.18,0,0.066705321,0,0
202,-5,0.9,4,63.41463415,4520,4862,-1962,-777,-1336,-823,-3516,-7706,-702,-922,33,2608,59.64,65.4,60.12,65.18,0,0.095695871,0,0
202,-5,0.9,4,64.22764228,1982,2616,-5376,-752,-360,-472,-4316,-8396,-708,-786,45,2311,59.64,65.51369464,60.12,65.18,0,0.113694644,0,0
202,-5,0.9,4,65.04065041,1722,314,-3554,-128,469,463,-3790,-8318,-198,-618,155,1840,59.63446289,65.65732058,60.12,65.18334201,-0.005537109,0.143625934,0,0.003342014
202,-5,0.9,4,65.85365854,1088,-156,-1034,259,739,1333,-3687.862031,-8220.750231,-129.9463981,-528.4639721,144.6333898,1547.365021,59.58553711,65.84613702,60.12,65.23134589,-0.048925781,0.188816447,0,0.048003875
202,-5,0.9,4,66.66666667,-169.2021385,-1032.49129,1100.627881,492.6289394,844.9969342,2303.831686,-3639.475333,-8110.944649,-99.25289494,-462.0297381,120.4390396,1311.293686,59.58,66.12495702,60.12,65.36607962,-0.005537109,0.278819997,0,0.134733732
202,-5,0.9,4,67.4796748,-1040,-1742,2222,641,950,3244,-3596.850969,-8021.166744,-73.93294431,-406.080635,92.77516951,1116.575509,59.58,66.35,60.12,65.54,0,0.225042978,0,0.17392038
202,-5,0.9,4,68.29268293,878,-1896,940,709,1210,4017,-3512,-7984,-22,-348,72,948,59.58,66.29952168,60.15785874,65.49583147,0,-0.050478323,0.037858742,-0.044168532
202,-5,0.9,4,69.10569106,1494,-1446,-450,800,1411,4537,-3218.275991,-8154.592593,132.2679603,-279.2474584,57.53566854,796.805065,59.58,66.28384277,60.18,65.47,0,-0.015678904,0.022141258,-0.025831468
202,-5,0.9,4,69.91869919,1732,-642,-1630,1067,1665,5222,-2746.747926,-8471.407407,384.3792829,-212.7295536,45.21227871,667.3263546,59.58,66.40615723,60.18,65.47,0,0.122314453,0,0
202,-5,0.9,4,70.73170732,1724,-524,-1654,1316,1812,5623,-2346,-8642,646,-168,40,564,59.59831731,66.42,60.18,65.3942285,0.018317313,0.013842773,0,-0.075771498
202,-5,0.9,4,71.54471545,1508.505495,-1030.066957,-1245.686178,1642.073116,1887.448141,6069.974275,-2093.511656,-8127,956.2326896,-142.6706317,59.5,471.8071334,59.64350136,66.41934078,60.18,65.18,0.045184051,-0.000659218,0,-0.214228502
202,-5,0.9,4,72.35772358,1300,-1914,-770,1920,1921,6501,-1890,-7612,1148,-131,79,424,59.6764764,66.35420334,60.14214126,65.08618656,0.032975033,-0.065137443,-0.037858742,-0.093813442
202,-5,0.9,4,73.17073171,1398.902606,-2684.830682,-657.9818477,2089.743179,1892.044269,6899.356459,-1688.86423,-7890.303457,835,-135.5,71.5,439.0197311,59.71253507,66.20379446,60.12,65.02225796,0.036058674,-0.150408876,-0.022141258,-0.063928597
202,-5,0.9,4,73.98373984,1663.961591,-3484.83018,-583.922067,2249.628347,1809.93272,7314.129858,-1580,-8192,522,-140,64,477,59.7560778,65.86469776,60.12,64.9738564,0.043542734,-0.339096702,0,-0.048401556
202,-5,0.9,4,74.79674797,2047.703704,-4312.45619,-536.5785386,2396.955503,1681.798817,7730.317602,-1610,-8220,908,-98,68,588,59.73785874,65.85952168,60.12,65.0474944,-0.018219063,-0.005176083,0,0.073637998
202,-5,0.9,4,75.6097561,2502.655693,-5166.166408,-504.7091436,2529.024643,1514.776025,8132.917097,-1523.881517,-8260.505415,1157.163768,-132.0582192,99.62650602,626.6258532,59.7,65.91,60.12,65.18,-0.037858742,0.050478323,0,0.132505597
202,-5,0.9,4,76.42276423,2981.344307,-6044.418531,-477.0717628,2643.135763,1315.997808,8506.925746,-1394,-8286,1328,-183,128,665,59.73249029,65.86590753,60.08214126,65.13583147,0.032490288,-0.044092466,-0.037858742,-0.044168532
202,-5,0.9,4,77.23577236,3436.296296,-6945.670255,-442.4242771,2736.588863,1092.597633,8837.340956,-1318,-7928,1422,-212,122,773,59.77437042,65.80962342,60.06553711,65.11373335,0.041880134,-0.056284114,-0.016604149,-0.022098113
202,-5,0.9,4,78.04878049,3820.038409,-7868.379277,-389.5245675,2806.683937,851.7089634,9109.160132,-1512,-7884,1324,-258,92,884,59.80945888,65.76379951,60.11446289,65.16172474,0.035088457,-0.045823911,0.048925781,0.047991388
202,-5,0.9,4,78.86178862,4085.097394,-8811.003293,-307.1305148,2850.720984,600.4652641,9307.380678,-1654.625858,-8099,1390,-361.8081304,103.8290323,1000.057208,59.846477,65.92236922,60.12,65.23955144,0.037018118,0.158569716,0.005537109,0.077826701
202,-5,0.9,4,79.67479675,4184,-9772,-184,2866,346,9417,-1726,-8314,1456,-472,130,1121,59.88,66.2,60.12,65.33855353,0.033523002,0.277630775,0,0.099002087
202,-5,0.9,4,80.48780488,3856,-10808,362,2849,3,9458,-1425.049773,-8070.992288,1311,-531.5472149,195.6709677,1246.565893,59.89987164,66.18241367,60.12,65.42255935,0.019871638,-0.017586332,0,0.084005815
202,-5,0.9,4,81.30081301,3318.560588,-11099.18351,115.75,2761.344968,7.208635367,9422.923015,-1002,-7762,1166,-586,247,1381,59.91493184,66.14746362,60.12,65.48749003,0.015060199,-0.034950051,0,0.064930683
202,-5,0.9,4,82.11382114,2632.182125,-11305.88534,-426,2602.084416,20.47302765,9330.711374,-755.0226265,-7639.050747,1341.777778,-651.849855,247,1527.524759,59.93289298,66.12186326,60.12,65.53608544,0.017961138,-0.025600356,0,0.048595411
202,-5,0.9,4,82.92682927,2019.7126,-11429.1445,-967.75,2449.281656,43.7509061,9200.894046,-552.1779799,-7548.969818,1668.222222,-724.9069172,247,1684.902631,59.97005513,66.15253906,60.12,65.51416853,0.037162152,0.030675802,0,-0.021916907
202,-5,0.9,4,83.7398374,1704,-11470,-1214,2381,78,9053,-468,-7514,1844,-811,247,1855,60,66.19780582,60.12,65.47,0.029944872,0.045266759,0,-0.044168532
202,-5,0.9,4,84.55284553,1624.737131,-11112,-1186.571429,2402.5,439.0013076,8830.517012,-1018.768073,-7731,1674.940553,-940.1571933,252.770557,2065.689429,60,66.04286994,60.11238636,65.47728,0,-0.154935884,-0.007613641,0.00728
202,-5,0.9,4,85.36585366,1592,-10754,-1118,2424,958,8561,-1734,-7948,1436,-1056,266,2251,60.00699973,66.01080806,60.09235908,65.49464,0.006999732,-0.032061877,-0.020027281,0.01736
202,-5,0.9,4,86.17886179,1655,-10909.87718,-863.4285714,2375.626374,1308.307456,8320.820467,-2009.3312,-7896.740741,1311.26418,-1121.76291,294.7995656,2375.982544,60.05108928,66.18186444,60.06413862,65.51536,0.044089543,0.171056381,-0.028220461,0.02072
202,-5,0.9,4,86.99186992,1718,-11224,-542,2282,1556,8075,-2202.711786,-7768.592593,1210.261661,-1181.452081,348.134914,2493.693212,60.07328711,66.18882457,60.03194544,65.53272,0.022197833,0.006960131,-0.03219318,0.01736
202,-5,0.9,4,87.80487805,1552,-11662,-362,2166,1664,7808,-2352.005359,-7602,1123.513213,-1232.443943,421.1643385,2597.241148,60.09052143,66.13946923,60,65.54,0.017234322,-0.049355342,-0.031945438,0.00728
202,-5,0.9,4,88.61788618,1743,-11587.17559,-2.255668915,2022.272971,1670.905941,7436.203341,-2495.075519,-7435.407407,1041.539607,-1272.114929,509.0461322,2679.735495,60.10472517,66.06088631,59.96068702,65.49214844,0.014203737,-0.078582923,-0.039312984,-0.047851563
202,-5,0.9,4,89.43089431,1934,-11434,338,1860,1673,6968,-2669.785866,-7307.259259,954.8616121,-1297.841471,606.9385883,2734.285398,60.114815,65.96424835,59.93074652,65.47127696,0.010089837,-0.096637954,-0.0299405,-0.020871478
202,-5,0.9,4,90.24390244,1849.481481,-11190.54847,520.1825177,1693.764995,1477.960872,6432.389402,-2914,-7256,854,-1307,710,2754,60.11970763,65.86072792,59.91342253,65.48459308,0.004892622,-0.103520435,-0.017323987,0.013316122
202,-5,0.9,4,91.05691057,1692.518519,-10868.89851,658.8690366,1514.459523,1069.810633,5783.929632,-3431.896807,-8688,752.6313691,-1305.098837,882.5079968,2737.819398,60.12,65.74047942,59.89822824,65.50980105,0.000292374,-0.120248501,-0.015194286,0.025207974
202,-5,0.9,4,91.8699187,1608,-10612,714,1300,714,4926,-3804,-10120,606,-1301,1003,2695,60.12,65.59693743,59.87720051,65.54409348,0,-0.143541983,-0.021027738,0.034292427
202,-5,0.9,4,92.68292683,2016.160546,-10484.15348,119,1002.393555,457.4108089,3373.358306,-2528,-9428,202,-1294,796,2545,60.12,65.46785963,59.83374155,65.62292975,0,-0.129077801,-0.043458958,0.078836265
202,-5,0.9,4,93.49593496,2660,-10342,-476,664,317,1588,-2278.854643,-8348.18313,-629.7647059,-1362,778.7799034,2608.981405,60.12,65.35969652,59.8284022,65.75781674,0,-0.108163114,-0.00533935,0.134886992
202,-5,0.9,4,94.30894309,3068.900849,-10015.68675,-442.8606557,336.8627786,312.6910208,137.8570311,-2192,-7652,-1212,-1430,763,2724,60.12,65.27313073,59.87505394,65.961165,0,-0.086565793,0.04665174,0.20334826
202,-5,0.9,4,95.12195122,3514,-9482,-372,16,308,-1008,-2314,-8032,-660,-1392,661,2839,60.11417611,65.21793003,59.8555957,65.98,-0.005823894,-0.055200691,-0.019458235,0.018835002
202,-5,0.9,4,95.93495935,4210,-8522,-254,-281,212,-1676,-2767.323135,-8505.239487,-171.9119382,-1415.042802,704.2253521,2911.516621,60.0953884,65.17743362,59.82,65.98,-0.018787702,-0.040496413,-0.035595703,0
202,-5,0.9,4,96.74796748,4350,-8108,-606,-348,231,-2070,-3132,-9014,266,-1464,793,2976,60.07223473,65.13826301,59.82,65.98,-0.023153674,-0.039170616,0,0
202,-5,0.9,4,97.56097561,4178,-7466,-702,-346,12,-2423,-3022.570034,-9480.26703,733.0501208,-1560.5136,915.6907287,3039.240997,60.052036,65.08754948,59.82,65.98,-0.020198728,-0.050713523,0,0
202,-5,0.9,4,98.37398374,3015.212579,-4339.290332,1333.703704,-137.0769028,289.4074074,-2813.089341,-2816,-10006,996,-1649,1087,3129,60.02845323,65.02188471,59.82,65.98,-0.023582769,-0.065664776,0,0
202,-5,0.9,4,99.18699187,1138.717401,449.243723,5114.296296,247.3504375,804.5925926,-3187.600226,-2578,-10760,576,-1673,1330,3385,60.0077567,64.95326348,59.7955957,65.98,-0.020696536,-0.068621228,-0.024404297,0
202,-5,0.9,4,100,156,2928,7150,454,1082,-3355,-1826,-11670,560,-1658,1284,3604,60,64.89483507,59.76,65.98069815,-0.007756695,-0.058428407,-0.035595703,0.000698148
202,-5,0.9,1,0,2690,-7254,1618,-399,-603,-2532,-1619.740666,-12416.94987,486.9548872,-1732.887577,1377.5,3876.462216,60,64.83881481,59.76,66.02999593,0,-0.056020258,0,0.049297781
202,-5,0.9,1,0.81300813,803.1111111,-5908.962963,-2401.928752,-616.3951959,-588.2524105,-2644.966834,-1438,-13172,426,-1840,1471,4164,60,64.78793689,59.769375,66.05,0,-0.050877925,0.009375,0.020004071
202,-5,0.9,1,1.62601626,-2701.111111,-3411.037037,-5676.853265,-748.4753757,-537.0603765,-2910.822558,-1011.459375,-14322.49045,752.6666667,-1906.2369,1444.037037,4453.736467,60,64.76090069,59.81742188,66.05,0,-0.027036202,0.048046875,0
202,-5,0.9,1,2.43902439,-4588,-2066,-7030,-793,-439,-3220,-387.8249802,-15570.80078,1359.333333,-1961.729561,1393.962963,4738.164598,60,64.78071335,59.8115978,66.05,0,0.019812659,-0.005824073,0
202,-5,0.9,1,3.25203252,-2694,-12846,-5512,-365,1096,-3589,292,-16156,1686,-1985,1367,4958,59.99932617,64.8365121,59.78735599,66.05,-0.000673828,0.055798757,-0.024241807,0
202,-5,0.9,1,4.06504065,-7.740877998,-13254.08911,821.3052755,127.5587111,878.0150901,-4207.870631,1030,-15404,1608,-1968,1397,5091,59.95391602,64.94356688,59.76494606,66.05,-0.045410156,0.107054773,-0.022409933,0
202,-5,0.9,1,4.87804878,2806,-13374,6304,415,450,-4646,922,-15336,938,-2087,1369,5550,59.94,64.97,59.76,66.05,-0.013916016,0.026433123,-0.004946061,0
202,-5,0.9,1,5.691056911,5064,-9112,6632,176,-103,-4684,-959.1722578,-14763.4509,687.4885224,-2219.582692,1373.503665,5965.656329,59.94,64.97,59.76,66.05,0,0,0,0
202,-5,0.9,1,6.504065041,2888,-7434,4440,-536,-889,-4289,-4729.773353,-13814.05878,521.8553723,-2349.267063,1387.340663,6334.105943,59.94,64.97,59.76,66.06548706,0,0,0,0.01548706
202,-5,0.9,1,7.317073171,998,-6676,1318,-990,-611,-4041,-8122,-13314,462,-2421,1411,6493,59.94,64.96921387,59.76,66.11899295,0,-0.000786133,0,0.053505886
202,-5,0.9,1,8.130081301,7984,-14974,-2394,-921,508,-5441,-10834.77625,-13815,1210.900867,-2441.601545,1691.939179,6112.173168,59.94,64.91623535,59.76,66.1941753,0,-0.052978516,0,0.075182356
202,-5,0.9,1,8.943089431,7180.434471,-13089.26343,-1521.333333,-802.669631,345.7037037,-5279.001899,-12324,-14316,2438,-2450,2137,5316,59.94,64.9,59.76,66.27360766,0,-0.016235352,0,0.079432353
202,-5,0.9,2,9.756097561,5544.424498,-9515.637976,99.33333333,-667.5014822,44.2962963,-4917.22602,-9315.555556,-12933.89222,3580.694754,-2344.101124,2568.137835,4021.303638,59.94,64.9,59.76,66.33986353,0,0,0,0.066255876
202,-5,0.9,2,10.56910569,4238,-7374,972,-603,-118,-4542,-3728.444444,-9776.228882,4700.902933,-2073.091138,2994.846695,2234.846835,59.94,64.80760382,59.76,66.38109151,0,-0.092396181,0,0.041227975
202,-5,0.9,2,11.38211382,3650,-7134,824,-611,-111,-4206,-720,-6326,5206,-1707,3188,611,59.94,64.67750873,59.76,66.42673361,0,-0.130095089,0,0.0456421
202,-5,0.9,2,12.19512195,4096.398603,-7465,327.1512583,-530.5,-92.66666667,-3832.654693,-3018,-2810,3734,-1044,2905,-581,59.94,64.62806234,59.76,66.541381,0,-0.049446393,0,0.114647399
202,-5,0.9,2,13.00813008,4616,-7796,-220,-450,-79,-3451,-2974.257408,2721.00057,647.9154658,-831.861622,1853.330702,-213.5,59.92748219,64.63460411,59.76,66.57,-0.01251781,0.006541775,0,0.028618995
202,-5,0.9,2,13.82113821,4710,-6894,-462,-463,-130,-3087,-2828,6296,-2338,-631,585,154,59.88229595,64.68732139,59.76,66.57,-0.045186241,0.052717281,0,0
202,-5,0.9,2,14.63414634,4279.672796,-7561,-594.0994475,-351.1516592,-131.5490431,-2692.49776,-36,2660,-3604,-104,-127,-376,59.88,64.69,59.78735599,66.62026553,-0.00229595,0.002678608,0.027355994,0.050265533
202,-5,0.9,2,15.44715447,3592,-8228,-654,-172,-132,-2301,-294,1808.082822,-2310.341727,324.6475908,-152.5199625,-1129.241821,59.88,64.69,59.82,66.72934047,0,0,0.032644006,0.109074938
202,-5,0.9,2,16.2601626,3108,-8212,-284,-45,-90,-1947,-552,1214,-540,708,-160,-1993,59.88,64.69,59.82,66.83140228,0,0,0,0.102061808
202,-5,0.9,2,17.07317073,3763,-8024.275542,665.5819938,-12.8276699,-49.93034056,-1589.203296,-386,279.5005086,390.3417266,1060.26214,-9,-2910.300828,59.88,64.80364746,59.82,66.89295278,0,0.113647461,0,0.061550503
202,-5,0.9,2,17.88617886,4418,-7850,1436,-1,-28,-1263,-220,-514,844,1404,142,-3771,59.88,65.17449707,59.82,66.92956905,0,0.370849609,0,0.036616272
202,-5,0.9,2,18.69918699,4278,-8424,1518,-55,-71,-1011,-303.0516605,-930.1973108,-240.266621,1786.680168,-16.29320452,-4456.788516,59.88,65.11,59.82,67.01391461,0,-0.06449707,0,0.084345552
202,-5,0.9,2,19.51219512,3196,-7892,1192,-76,-109,-634,-504,-1228,-1562,2140,-304,-5020,59.88,65.04,59.8184368,67.10130867,0,-0.07,-0.0015632,0.087394063
202,-5,0.9,2,20.32520325,2456.140477,-7998,853.0640928,-45,-108.5163934,-451.7629211,-1004,-1452,-1882,2400,-601,-5436,59.88,65.04,59.78131081,67.1413247,0,0,-0.037125992,0.040016032
202,-5,0.9,2,21.13821138,1854,-8104,662,-14,-107,-349,-1174.787482,-1754.75326,-1593.080569,2764.062262,-973.109575,-5780.879018,59.88,64.96632006,59.74246512,67.23788569,0,-0.073679944,-0.038845688,0.096560985
202,-5,0.9,2,21.95121951,1338,-7972,710,-20,-93,-309,-1264,-2158,-1230,3100,-1270,-6095,59.88,64.70006442,59.70722709,67.44024048,0,-0.266255635,-0.035238028,0.20235479
202,-5,0.9,2,22.76422764,1158,-8046,958,-14,-87,-319,-1300.30667,-2783.190415,-1096.919431,3301.722302,-1417.533975,-6397.373251,59.91264401,64.65031612,59.66272505,67.55669894,0.032644006,-0.049748304,-0.044502045,0.116458459
202,-5,0.9,2,23.57723577,1422,-7776,1058,-44,-73,-327,-1338,-3550,-1038,3459,-1484,-6684,59.93770405,64.60609404,59.64,67.64845888,0.025060045,-0.044222081,-0.022725046,0.091759947
202,-5,0.9,2,24.3902439,1366.615385,-7870.936403,1027.925926,-69.21523872,-84.66666667,-385.2412858,-1444.814168,-4315.772392,-1067.208285,3591.756474,-1451,-6970.056381,59.89251781,64.50350906,59.64,67.73578789,-0.045186241,-0.102584979,0,0.087329008
202,-5,0.9,2,25.20325203,1257.897436,-8052.983916,972.0740741,-92.4216903,-106.3333333,-495.7669462,-1666,-5184,-1136,3712,-1418,-7216,59.88,64.48,59.64,67.82927065,-0.01251781,-0.023509058,0,0.093482755
202,-5,0.9,2,26.01626016,1182,-8168,942,-117,-118,-601,-2408,-6292,-1292,3833,-1433,-7382,59.88,64.48,59.64,67.92311253,0,0,0,0.093841879
202,-5,0.9,2,26.82926829,1164.702829,-8193.52988,1020,-147.3477801,-115.5,-677.425899,-2690.799218,-7395.649866,-1124,3870.763103,-1477.745013,-7500.848577,59.88,64.50856934,59.64,67.98945289,0,0.028569335,0,0.06634037
202,-5,0.9,2,27.64227642,1142,-8204,1098,-174,-113,-756,-2866,-8144,-812,3900,-1521,-7593,59.88,64.55950601,59.64,68.04818628,0,0.050936678,0,0.058733381
202,-5,0.9,2,28.45528455,838,-7938,1090,-189,-114,-854,-2981.223356,-8400.156843,-380,3956.235938,-1537.058559,-7656.628848,59.88,64.61224529,59.64,68.08472995,0,0.052739279,0,0.036543669
202,-5,0.9,2,29.26829268,646,-7710,1250,-206,-130,-989,-3104,-8514,-92,3993,-1544,-7719,59.88,64.573529,59.65000857,68.09,0,-0.038716288,0.01000857,0.005270054
202,-5,0.9,2,30.08130081,434,-8198,950,-238,-153,-1119,-3370,-8528,-134,3917,-1473,-7811,59.88,64.42084836,59.69612917,68.09,0,-0.152680643,0.046120601,0
202,-5,0.9,2,30.89430894,538,-7584,718,-311,-131,-1359,-3556,-8772,-538,3774,-1413,-7828,59.88,64.31413434,59.73198009,67.90639121,0,-0.106714024,0.035850918,-0.183608793
202,-5,0.9,2,31.70731707,401,-7565.41097,1045,-335.4874174,-162.3732332,-1530.198677,-3598,-9224,-804,3709,-1395,-7766,59.87742188,64.28157538,59.7667914,67.67709855,-0.002578125,-0.032558955,0.034811308,-0.229292656
202,-5,0.9,2,32.5203252,264,-7560,1372,-358,-204,-1689,-3652,-10152,-1076,3626,-1498,-7668,59.829375,64.52968607,59.79914382,67.60026912,-0.048046875,0.24811069,0.032352421,-0.076829428
202,-5,0.9,2,33.33333333,418.2743141,-7596.669929,1299.955607,-419.5570844,-220.5705258,-1884.872139,-3652,-10733.937,-943.1023622,3576.920941,-1744.012482,-7595.448987,59.82,64.71978889,59.85404211,67.44520197,-0.009375,0.190102821,0.054898296,-0.155067149
202,-5,0.9,2,34.14634146,794.0648375,-7684.119809,1133.214953,-513.148598,-232.0976684,-2099.456545,-3652,-11010,-728,3526,-2003,-7536,59.82,64.82878218,59.93470047,67.18487147,0,0.108993284,0.08065836,-0.260330503
202,-5,0.9,2,34.95934959,1260.822942,-7788.509786,945.8668224,-603.4158125,-242.8259767,-2297.812679,-3624.984772,-10872.65862,-534.6328376,3441.875163,-2169.214929,-7476.55319,59.82,64.72715746,59.9740897,67.06262614,0,-0.101624722,0.039389226,-0.122245329
202,-5,0.9,2,35.77235772,1688,-7876,812,-655,-257,-2445,-3561.969543,-10562.42836,-347.7608632,3326.545229,-2304.274131,-7423.165484,59.81310019,64.58917821,60.00735231,67.02,-0.006899809,-0.137979247,0.033262615,-0.042626143
202,-5,0.9,2,36.58536585,2101.092893,-7952.782392,728.6978193,-670.4735179,-274.2383308,-2551.909701,-3490,-10232,-264,3182,-2360,-7400,59.73508391,64.49655906,60.04516878,67.02,-0.078016281,-0.092619154,0.037816471,0
202,-5,0.9,2,37.39837398,2519.161125,-8024.391196,660.3489097,-680.5316373,-295.935508,-2638.626467,-3408,-9916,-366,2964,-2218,-7402,59.67480217,64.5124707,60.08628409,67.02,-0.060281736,0.015911648,0.041115307,0
202,-5,0.9,2,38.21138211,2802,-8056,632,-692,-329,-2684,-3530,-10240,-142,2777,-1967,-7362,59.64039411,64.61842773,60.11960297,67.02,-0.03440806,0.105957031,0.033318879,0
202,-5,0.9,2,39.02439024,2958.122324,-8041,984.8773373,-712.6121746,-423.9122377,-2698.912954,-3534,-10842,226,2539,-1547,-7183,59.64,64.53694336,60.12,66.93838999,-0.000394114,-0.081484375,0.00039703,-0.081610014
202,-5,0.9,2,39.83739837,3030,-8026,1558,-726,-546,-2705,-3348,-11282,486,2381,-1235,-6971,59.64,64.48,60.12,66.87,0,-0.056943359,0,-0.068389986
202,-5,0.9,2,40.6504065,2214,-9440,1982,-674,-633,-2637,-2882,-11754,946,2277,-913,-6434,59.64,64.48,60.12,66.87,0,0,0,0
202,-5,0.9,2,41.46341463,2366,-9007.076923,1407.532135,-765.6777251,-641.6058601,-2566.046861,-2756,-11738,814,2329,-716,-5913,59.64,64.51027366,60.10285365,66.91286587,0,0.030273656,-0.017146346,0.042865866
202,-5,0.9,2,42.27642276,2518,-8432,472,-866,-646,-2526,-2936.467101,-11148.19997,951.8041002,2285.323261,-300.1357689,-5147.621045,59.64,64.62,60.06059841,67.01850397,0,0.109726344,-0.042255241,0.105638103
202,-5,0.9,2,43.08943089,2489.524775,-8162.923077,-400.5321355,-879.8222749,-651.2380952,-2540.892086,-3372,-10066,1212,2163,255,-4058,59.64,64.76212589,60.06,66.84202148,0,0.142125894,-0.000598412,-0.176482485
202,-5,0.9,2,43.90243902,2424,-8036,-912,-885,-654,-2571,-4446,-8846,1512,1609,862,-2160,59.64,64.83,60.06,66.72,0,0.067874106,0,-0.122021484
202,-5,0.9,2,44.71544715,2230.475225,-8180.304813,-502.5479452,-865,-620.5,-2607.354945,-4142.666667,-9865.87786,1250.260217,1074.665304,1143.77048,-817.4867338,59.64,64.83,60.06,66.72,0,0,0,0
202,-5,0.9,2,45.52845528,2074,-8456,68,-845,-587,-2665,-3579.333333,-12192.42239,653.409323,551.8489063,1341.440796,279.6705482,59.64,64.83,60.07391602,66.77102539,0,0,0.013916016,0.051025391
202,-5,0.9,2,46.34146341,2239,-8842.8933,352.8126511,-880.9220827,-637.3251073,-2816.134242,-3276,-14726,4,38,1416,1016,59.64,64.83,60.11932617,66.9375293,0,0,0.045410156,0.166503906
202,-5,0.9,2,47.15447154,2404,-9158,548,-934,-711,-2992,-3462,-17929.63741,-815.3760775,-588.5538573,198.5,1502.85623,59.62748219,64.81539589,60.12,66.89847168,-0.01251781,-0.014604112,0.000673828,-0.039057617
202,-5,0.9,2,47.96747967,2116,-9236,656,-963,-750,-3094,-3648,-19998,-1344,-960,-1019,1731,59.60214126,64.78583147,60.12,66.88236515,-0.025340932,-0.029564421,0,-0.016106526
202,-5,0.9,2,48.7804878,1509.351619,-9631.862647,510,-1006.392249,-839.4893715,-3292.600381,-3000.596647,-18238.46473,-176.084513,-671.7037037,-246.8080368,1725.540653,59.58229595,64.76267861,60.12,66.9989945,-0.019845308,-0.02315286,0,0.116629351
202,-5,0.9,2,49.59349593,1082,-10322,364,-1034,-904,-3580,-1352.304406,-14262.92946,2052.275419,-136.2962963,1193.383926,1713.636862,59.58,64.78214844,60.12,66.99956158,-0.00229595,0.01946983,0,0.000567071
202,-5,0.9,3,50.40650407,1154,-11278,828,-892,-880,-3993,856,-10026,3428,152,1987,1702,59.58,64.83,60.12,66.89651283,0,0.047851563,0,-0.103048747
202,-5,0.9,3,51.2195122,1314,-11324,540,-873,-894,-4202,4756,-5968,3626,-258,2006,1693,59.58,64.78583147,60.12,66.75162157,0,-0.044168532,0,-0.144891263
202,-5,0.9,3,52.03252033,1912,-13088,1220,-937,-1268,-4160,9515.270677,-4846.54371,-3947,-1443.424253,1437.286888,1975.035252,59.58,64.76,60.12,66.61489967,0,-0.025831468,0,-0.136721894
202,-5,0.9,3,52.84552846,725.5838243,-14423.30526,1707.871287,-880.8552036,-1389.861258,-4410.241339,12348,-4426,-11520,-2348,266,2601,59.58,64.76,60.12,66.48070832,0,0,0,-0.134191355
202,-5,0.9,3,53.65853659,-862,-15402,1950,-796,-1469,-4771,3298,-10326,-7358,-954,-1476,3771,59.58,64.76,60.12,66.30964289,0,0,0,-0.171065424
202,-5,0.9,3,54.47154472,-1462,-15952,1364,-746,-1543,-4952,-2144,-10970,936,-152,-635,4049,59.58,64.76,60.12,66.12,0,0,0,-0.189642892
202,-5,0.9,3,55.28455285,-764,-14352,408,-569,-1816,-5228,-3284.507945,-9005,4721.90528,-427.7216777,348.7479357,4201.125376,59.58,64.76,60.12,65.97518988,0,0,0,-0.144810115
202,-5,0.9,3,56.09756098,-268,-13734,126,-513,-1952,-5347,-4288,-7040,6346,-1030,926,4355,59.58,64.76452045,60.12,65.84748258,0,0.004520447,0,-0.127707309
202,-5,0.9,3,56.91056911,2100,-11886,-414,-552,-1895,-5503,-7254,-14940,1746,-2101,505,4645,59.58,64.81513548,60.12,65.73297836,0,0.050615031,0,-0.114504218
202,-5,0.9,3,57.72357724,3754,-11584,-172,-531,-1799,-5807,-5286,-11522.27279,-34.10052696,-1966.544314,-114.1969904,5199.186695,59.58,64.8591289,60.12,65.63271354,0,0.043993426,0,-0.100264819
202,-5,0.9,3,58.53658537,8356,-14486,1000,-646,-1793,-6161,-3318,-7892,-762,-1771,-506,5579,59.58,64.9,60.12,65.54,0,0.040871096,0,-0.092713539
202,-5,0.9,3,59.3495935,7712.980323,-13883.52868,2087.105462,-765.0214364,-1969.593675,-5787.930272,-3340.5,-7526.323715,-554.8125,-1665.993974,-430.9721937,5366.124142,59.58,64.93785196,60.12,65.41522964,0,0.037851957,0,-0.124770359
202,-5,0.9,4,60.16260163,6097.614195,-12332.57649,3168.815966,-887.906001,-2394.7498,-4856.647391,-3390,-7274.454413,-99,-1582.411188,-260.0091831,4857.414377,59.58,64.98888583,60.12,65.29507482,0,0.051033873,0,-0.120154824
202,-5,0.9,4,60.97560976,3980.44097,-10217.83605,3998.618487,-992.3375651,-2911.531026,-3649.040815,-3439.5,-7128.857905,356.8125,-1500.872808,-74.29158096,4247.747425,59.58,65.07382302,60.12,65.1889776,0,0.084937188,0,-0.106097215
202,-5,0.9,4,61.78861789,1832,-7924,4330,-1056,-3363,-2447,-3462,-7082,564,-1402,45,3732,59.58,65.16963545,60.12,65.18,0,0.095812428,0,-0.008977602
202,-5,0.9,4,62.60162602,-540,-4918,4020,-1081,-3714,-1181,-3320,-7221.78617,-50,-1268.859412,100.2545915,3342.644836,59.58,65.26,60.12,65.18,0,0.090364553,0,0
202,-5,0.9,4,63.41463415,3822,-2001.196941,3032.590404,-1117.75,-3665.762701,-577.381588,-3178,-7476,-664,-1121,126,2998,59.58,65.30145811,60.12,65.2557757,0,0.041458105,0,0.075775701
202,-5,0.9,4,64.22764228,8184,246,1430,-1141,-3531,-315,-3315.180157,-7806.21383,-658.387963,-970.6963416,86,2719.086513,59.58,65.36740377,60.12,65.34827526,0,0.065945667,0,0.092499556
202,-5,0.9,4,65.04065041,6987.627617,1631.580233,-1082.362487,-1096.853579,-2107.635248,-395,-3548,-8022,-642,-828,46,2448,59.58,65.50259623,60.12,65.39626665,0,0.135192456,0,0.047991388
202,-5,0.9,4,65.85365854,4372,2286,-3506,-964,-348,-475,-3793.819843,-8009.217391,-109.401214,-693.7036501,65.80319149,2111.987927,59.58,65.56713093,60.12,65.37416853,0,0.064534704,0,-0.022098113
202,-5,0.9,4,66.66666667,-292,-316,-4670,-60,267,259,-3944,-7980,416,-600,97,1794,59.58,65.61,60.12,65.33,0,0.042869068,0,-0.044168532
202,-5,0.9,4,67.4796748,-549.2639377,-1495.107084,-2454.241927,373.2539124,761.9121915,1263.691898,-3556,-7920,420,-568,118,1567,59.58,65.76778943,60.12,65.33,0,0.157789428,0,0
202,-5,0.9,4,68.29268293,-754,-2150,576,615,1146,2249,-3499.595969,-7861.935484,464.6753247,-500.2033339,112.8666667,1318.857915,59.58,65.96896244,60.12,65.33,0,0.201173011,0,0
202,-5,0.9,4,69.10569106,-1574,-2412,1826,706,1386,2930,-3448,-7830,506,-434,104,1088,59.58,66.16745187,60.12,65.33,0,0.19848943,0,0
202,-5,0.9,4,69.91869919,-632,-2424,1412,760,1796,3677,-3176.37005,-7965,478,-407.0387108,94.13333333,897.0673345,59.6044043,66.24408325,60.12,65.35214844,0.024404297,0.076631383,0,0.022148438
202,-5,0.9,4,70.73170732,297.5810731,-2131.555556,409.1368327,853.4095617,2120.600312,4263.16707,-2730,-8100,450,-380,88,751,59.64,66.2696975,60.12,65.4,0.035595703,0.025614251,0,0.047851563
202,-5,0.9,4,71.54471545,1163.644539,-1588.444444,-882.4315837,985.1162633,2401.136499,4779.10996,-2184,-8000,606,-321,97,667,59.64,66.23955091,60.12,65.4,0,-0.030146597,0,0
202,-5,0.9,4,72.35772358,1656,-1296,-1522,1146,2615,5288,-2078,-7984,456,-279,81,632,59.64,66.16939191,60.12,65.39116598,0,-0.070158999,0,-0.008834019
202,-5,0.9,4,73.17073171,1829.526165,-1511.726737,-1369.953028,1375.891536,2789.247743,5786.443067,-1772,-7984,640,-249,80,609,59.64,66.00545398,60.12,65.33883402,0,-0.16393793,0,-0.052331962
202,-5,0.9,4,73.98373984,1902,-2030,-1024,1637,2877,6323,-1580.674184,-7921,472,-232.9006623,76.64473684,658.8860104,59.64695384,65.9593952,60.12,65.33,0.006953836,-0.046058777,0,-0.008834019
202,-5,0.9,4,74.79674797,1124,-3288,-324,1864,2631,7017,-1490,-7858,304,-216,74,725,59.67136322,65.94535393,60.12,65.33,0.024409383,-0.014041265,0,0
202,-5,0.9,4,75.6097561,986.9143337,-4082.853919,-156.7210682,1981.298737,2198.950472,7599.799281,-1550,-8062,422,-180,92,749,59.69477085,65.92953599,60.12,65.28583147,0.02340763,-0.015817941,0,-0.044168532
202,-5,0.9,4,76.42276423,940,-4802,-96,2061,1785,8111,-1539.280994,-7930.296296,728.476625,-206.716478,87.85185185,811.2166711,59.7,65.84827479,60.12,65.26,0.005229151,-0.081261208,0,-0.025831468
202,-5,0.9,4,77.23577236,1774,-5766.663944,-631,2115.595281,1572.296698,8594.560327,-1510.339766,-7685.703704,1163.651114,-269.2107337,80.14814815,905.8268961,59.7,65.56865327,60.12,65.26,0,-0.279621513,0,0
202,-5,0.9,4,78.04878049,2608,-6594,-1166,2166,1397,8956,-1468,-7554,1492,-341,76,997,59.71597391,65.54,60.12,65.28847168,0.015973909,-0.028653273,0,0.02847168
202,-5,0.9,4,78.86178862,2064,-7010,-992,2234,1208,9127,-1323.142215,-7745,1682.107065,-424.6102164,105.9882813,1064.045817,59.76,65.54,60.12,65.33,0.044026091,0,0,0.04152832
202,-5,0.9,4,79.67479675,2469,-7734.390182,-663.8308315,2289.921053,1075.560441,9245.781897,-1202,-7936,1774,-516,148,1144,59.79734176,65.49214844,60.12,65.33,0.037341765,-0.047851563,0,0
202,-5,0.9,4,80.48780488,2874,-8588,-284,2319,947,9373,-1500,-7542,1374,-596,167,1297,59.8378125,65.50106395,60.12,65.32354004,0.040470735,0.008915508,0,-0.006459961
202,-5,0.9,4,81.30081301,2746,-9370,26,2289,777,9592,-1366,-7620,914,-695,194,1487,59.87824219,65.71844826,60.12,65.26645996,0.040429688,0.217384318,0,-0.057080078
202,-5,0.9,4,82.11382114,2578,-10068,218,2256,648,9779,-1237.013328,-7752.395592,975.8251928,-747.7100055,233.2537313,1631.749013,59.88,65.95703228,60.12,65.30420541,0.001757812,0.238584017,0,0.037745447
202,-5,0.9,4,82.92682927,2926,-10730,202,2190,697,9784,-1122,-7840,1114,-796,258,1763,59.88,66.12,60.12,65.40734986,0,0.16296772,0,0.103144453
202,-5,0.9,4,83.7398374,2996,-11088,42,2115,860,9737,-1034,-7436,1378,-868,238,1897,59.91249029,66.07214844,60.12,65.47627137,0.032490288,-0.047851563,0,0.068921508
202,-5,0.9,4,84.55284553,2926.814815,-11421.77809,42.23033241,2012.67696,1038.200946,9674.710151,-1175.975884,-7534.518519,1351.801066,-984.5508205,253.7382252,2070.392143,59.95429265,66.05980256,60.12,65.53797615,0.041802357,-0.012345873,0,0.061704784
202,-5,0.9,4,85.36585366,2753.851852,-11772.75595,42.95928595,1884.866509,1238.728322,9603.151395,-1489.062879,-7717.481481,1288.268798,-1124.200012,290.3653392,2258.986192,59.98923901,66.11422959,60.12,65.59404319,0.034946364,0.05442703,0,0.056067038
202,-5,0.9,4,86.17886179,2529,-12106.20034,44.24379504,1751.231117,1437.177022,9515.112366,-1804,-7816,1210,-1232,332,2406,60.03246074,66.09152832,60.09785874,65.65226892,0.04322173,-0.022701275,-0.022141258,0.058225731
202,-5,0.9,4,86.99186992,2304.148148,-12387.37798,46.14079412,1631.433255,1609.141939,9403.3817,-2106.698788,-7792.496,1083.884931,-1305.182099,375.6203495,2513.565636,60.06,66.05168457,60.06,65.69,0.02753926,-0.03984375,-0.037858742,0.037731077
202,-5,0.9,4,87.80487805,2131.185185,-12581.55562,48.70721763,1545.135392,1730.217967,9260.748033,-2453.326137,-7736.448,896.1005475,-1373.314861,427.0874644,2614.90134,60.06,66.16520996,60.06,65.69,0,0.113525391,0,0
202,-5,0.9,4,88.61788618,2062,-12654,52,1512,1776,9080,-2780.004091,-7669.552,698.1736983,-1429.956574,483.8444046,2699.854227,60.07131687,66.16490883,60.05327512,65.69,0.011316872,-0.000301127,-0.006724885,0
202,-5,0.9,4,89.43089431,2128.940377,-12312.71183,123.7937457,1534.555556,1728.851261,8685.897959,-3022.854697,-7613.504,541.6312328,-1468.665525,543.3342298,2758.271409,60.11555556,66.00959698,60.00798878,65.69,0.044238683,-0.155311854,-0.045286338,0
202,-5,0.9,4,90.24390244,2286.102976,-11653.64589,261.1375315,1576.444444,1613.702522,8008.824144,-3118,-7590,478,-1483,603,2780,60.12,65.94859695,59.97323449,65.69,0.004444444,-0.061000029,-0.034754286,0
202,-5,0.9,4,91.05691057,2468,-11224,358,1599,1470,7200,-3026,-8428,856,-1384.5,655.2280287,2769.5,60.12,65.90264305,59.94,65.69,0,-0.045953903,-0.033234492,0
202,-5,0.9,4,91.8699187,2704.3391,-11118.7697,397.183813,1482.037037,1265.669804,6090.36556,-2934,-9266,1234,-1286,729,2759,60.12,65.77122462,59.89401541,65.72790534,0,-0.131418425,-0.045984592,0.037905336
202,-5,0.9,4,92.68292683,3029.349603,-11054.68959,431.5063918,1189.62963,968.606492,4566.80378,-3026,-7504,818,-1389,931,2787,60.12,65.64644586,59.88,65.77647552,0,-0.124778766,-0.014015408,0.04857018
202,-5,0.9,4,93.49593496,3384.326228,-11011.56612,459.958518,809.5,618.2089606,2864.450498,-2914,-7646,254,-1476,1191,2813,60.12,65.55286719,59.88,65.81688228,0,-0.09357867,0,0.040406767
202,-5,0.9,4,94.30894309,3710.563691,-10969.20573,481.5309737,429.3703704,253.8761045,1218.44155,-2172,-10038,-462,-1633,1228,2824,60.12,65.50596514,59.88,65.86451231,0,-0.046902048,0,0.047630024
202,-5,0.9,4,95.12195122,3949.356709,-10907.41488,495.2145404,136.962963,-84.99318078,-136.0872279,-1385.958333,-9513,-441.9671053,-1732.943091,1123.5,2940.830799,60.11974605,65.46439008,59.88,65.9148877,-0.000253954,-0.041575056,0,0.050375388
202,-5,0.9,4,95.93495935,4042,-10806,500,20,-359,-964,-940,-8988,-404,-1805,1019,3147,60.0947075,65.38920568,59.88,65.96877767,-0.025038544,-0.075184406,0,0.053889974
202,-5,0.9,4,96.74796748,3567.704757,-10368.84393,473.2145483,43.85185185,-598.8258943,-1376.240291,-1586,-9174.255265,-366.4264646,-1851.371716,1092.362069,3387.532877,60.04763039,65.29348455,59.88,65.98,-0.047077112,-0.095721131,0,0.011222331
202,-5,0.9,4,97.56097561,2370.521888,-9473.222454,393.2198879,103.4814815,-846.2082558,-1674.334054,-2232,-9582,-310,-1895,1180,3655,60.00547,65.19746056,59.88,65.98,-0.042160385,-0.096023987,0,0
202,-5,0.9,4,98.37398374,789.0056868,-8359.031445,260.5585608,181,-1078.331966,-1909.019099,-2013.62963,-10520.88352,-102.0178615,-1962.668799,1206.494253,3899.4402,59.98046209,65.10894032,59.8555957,65.98,-0.025007917,-0.088520239,-0.024404297,0
202,-5,0.9,4,99.18699187,-838.2895564,-7266.166782,75.77310915,258.5185185,-1272.381906,-2131.033232,-1467.703704,-12185.16646,304.5104706,-2049.832903,1228.712644,4135.134645,59.95786757,65.01848037,59.82016195,65.98,-0.022594512,-0.090459951,-0.035433753,0
202,-5,0.9,4,100,-2172.809549,-6434.524342,-160.5939251,318.1481481,-1405.542957,-2391.114263,-758,-14175.2342,804.1807095,-2143.520194,1246.413793,4369.610593,59.94287047,64.93809506,59.83555556,65.98,-0.014997105,-0.08038531,0.015393605,0
202,-5,0.9,1,0,-2876,-6104,-448,342,-1455,-2740,-48.2962963,-16091.47212,1291.588569,-2230.758553,1259.356322,4610.395297,59.94,64.87666093,59.86196844,65.98,-0.00287047,-0.061434134,0.026412889,0
202,-5,0.9,1,0.826446281,-3130.818185,-7252.518519,-1710.627295,117.8826023,-820.5925926,-3314.725769,497.6296296,-17534.26559,1661.329761,-2298.575861,1267.298851,4865.016014,59.94,64.8318021,59.87936556,65.98,0,-0.044858821,0.017397112,0
202,-5,0.9,1,1.652892562,-3316.297981,-9385.481481,-3727.869203,-313.790351,357.5925926,-4011.539965,716,-18104,1808,-2334,1270,5141,59.94,64.83,59.88,65.98,0,-0.001802104,0.000634444,0
202,-5,0.9,1,2.479338843,-3388,-10534,-4782,-592,992,-4520,320.9841735,-17290.84543,1767.664765,-2347.225878,1126.5,5541.793676,59.93932617,64.83078613,59.88,65.98,-0.000673828,0.000786133,0,0
202,-5,0.9,1,3.305785124,-2908.162989,-10252.07407,-4687.731283,-667.0868359,932.6714754,-4822.427378,-236,-15648,1658,-2353,983,5798,59.89391602,64.88376465,59.88,65.98,-0.045410156,0.052978516,0,0
202,-5,0.9,1,4.132231405,-1701.410454,-9547.259259,-4426.651216,-729.7155944,781.7931658,-5099.3426,-494,-13340,1226,-2311,1201,5772,59.88,64.89925213,59.88,65.98874268,-0.013916016,0.01548748,0,0.008742684
202,-5,0.9,1,4.958677686,-116.8801417,-8631,-4031.348927,-779.3537828,580.0259673,-5337.601568,-3696,-12536,698,-2146,1441,5898,59.88,64.89378888,59.88,66.0425111,0,-0.005463253,0,0.053768421
202,-5,0.9,1,5.785123967,1496.290202,-7714.740741,-3534.413543,-815.4689083,368.030776,-5524.060189,-4886.357801,-11983.87468,1072.85312,-2117.280808,1786.533521,5738.92028,59.88,64.88419054,59.8715978,66.06946756,0,-0.009598331,-0.008402198,0.026956457
202,-5,0.9,1,6.611570248,2788.962832,-7009.925926,-2968.434191,-837.5284783,186.4684882,-5645.574365,-5832.272526,-11586.70278,2002.959361,-2104.473608,2218.351221,5301.040839,59.88,64.87184306,59.84735599,66.08720922,0,-0.012347486,-0.024241807,0.017741657
202,-5,0.9,1,7.438016529,3412,-6728,-2366,-845,76,-5689,-6522.208351,-11191.39355,3196.639042,-2096.826004,2659.90216,4643.401258,59.88,64.85813234,59.82494606,66.10540189,0,-0.013710719,-0.022409933,0.018192669
202,-5,0.9,2,8.26446281,3561.960047,-7258,-1596.343807,-679.5348418,31.16725115,-5395.294719,-6944.62945,-10644.85621,4362.212482,-2083.5856,3034.6354,3825.041119,59.88,64.84444431,59.82,66.13213468,0,-0.01368803,-0.004946061,0.026732792
202,-5,0.9,2,9.090909091,3626,-7788,-438,-432,-10,-4883,-7088,-9794,5208,-2054,3266,2905,59.88,64.83216489,59.82,66.16987677,0,-0.012279419,0,0.037742088
202,-5,0.9,2,9.917355372,3538,-7168,1700,-291,-78,-4414,-3492,-7074.49243,5822.166999,-1473.58093,3390.540825,963.199563,59.88,64.82066049,59.82,66.2160034,0,-0.011504397,0,0.046126636
202,-5,0.9,2,10.74380165,3951,-7604,1463.157895,-422,-111.3673469,-3905.464309,104,-2960,6142,-779,3448,-503,59.88,64.8071982,59.82,66.26777137,0,-0.013462295,0,0.051767962
202,-5,0.9,2,11.57024793,4364,-8040,980,-553,-126,-3411,-1263,2394.003905,2266.319782,-596.9589859,2496.887712,-216.5,59.88,64.79312306,59.82,66.32243743,0,-0.014075138,0,0.054666067
202,-5,0.9,2,12.39669421,4203,-7977,76.84210526,-411.8649789,-97.5,-2979.081695,-2630,5826,-2436,-437,1179,70,59.88,64.77990692,59.82,66.37794701,0,-0.013216135,0,0.055509572
202,-5,0.9,2,13.2231405,4042,-7914,-580,-221,-69,-2579,-1396,4520.367978,-3873.319782,-137.0896017,534.3506295,-200.5416667,59.88,64.76902164,59.82,66.43745917,0,-0.010885286,0,0.059512168
202,-5,0.9,2,14.04958678,4105,-8172,1.14E-13,-125.3832728,-88,-2188.662466,-162,2856,-4484,225,95,-704,59.88,64.76193905,59.82,66.50344416,0,-0.007082589,0,0.065984986
202,-5,0.9,2,14.87603306,4168,-8430,580,-79,-107,-1841,-170.1264368,2378.362558,-2375,602.4761096,-179.9299587,-1240.654229,59.8801572,64.7601834,59.82,66.57797314,0.0001572,-0.001755649,0,0.074528976
202,-5,0.9,2,15.70247934,4031.14604,-8086.974874,526,-78.483545,-99.56976744,-1558.153555,-190,1910,-266,967,-365,-1874,59.88508467,64.76593211,59.82,66.66973346,0.004927468,0.005748712,0,0.09176032
202,-5,0.9,2,16.52892562,3752,-7696,472,-78,-89,-1319,-243.7118611,550.6461925,-313.878628,1255.369668,-467.8724501,-2641.610429,59.89515905,64.77768555,59.82,66.77302252,0.010074377,0.01175344,0,0.103289061
202,-5,0.9,2,17.3553719,3243.370004,-7612.933557,486.0587834,-47.20136585,-83.3796727,-1111.094286,-336,-766,-438,1542,-573,-3384,59.90798642,64.79265082,59.82,66.88868343,0.012827376,0.014965272,0,0.115660913
202,-5,0.9,2,18.18181818,2596.907224,-7559.133445,525.4509001,9.20136585,-78.83428079,-926.0932901,-503.9774916,-1308.724554,-1148.121372,1894.17762,-782.5611418,-3912.679525,59.92117288,64.80803503,59.82,67.00538629,0.013186462,0.015384206,0,0.116702856
202,-5,0.9,2,19.00826446,2278,-7540,586,40,-75,-767,-660,-1562,-1782,2266,-1083,-4404,59.93232452,64.82104527,59.82,67.10904083,0.011151638,0.013010244,0,0.103654548
202,-5,0.9,2,19.83471074,2365,-7791.920266,862.4338687,40.73179675,-71.1,-622.2759242,-714,-1582,-1342,2624,-1513,-4959,59.93904742,64.82888866,59.82,67.19623275,0.006722901,0.007843385,0,0.087191916
202,-5,0.9,2,20.66115702,2452,-8074,1104,41,-69,-522,-937.2092182,-1746.571731,-1016.939597,2870.492932,-1727.471414,-5406.388222,59.94,64.81915628,59.81628517,67.28358793,0.000952577,-0.009732378,-0.003714834,0.087355183
202,-5,0.9,2,21.48760331,2196.042684,-8106.959586,1100.211538,24.46987952,-105.5,-471.4394654,-1294,-2060,-854,3085,-1822,-5751,59.94,64.76519747,59.79407964,67.36665197,0,-0.053958813,-0.022205526,0.083064031
202,-5,0.9,2,22.31404959,1718,-8142,1088,-8,-142,-449,-1718,-2540,-1050,3303,-1728,-5961,59.93400724,64.69922382,59.76886885,67.45855791,-0.005992757,-0.065973644,-0.025210786,0.091905942
202,-5,0.9,2,23.14049587,1184,-8370,942,-50,-123,-489,-1850,-3488,-962,3530,-1329,-6440,59.91648011,64.61799488,59.76,67.57965414,-0.017527129,-0.081228943,-0.008868854,0.121096231
202,-5,0.9,2,23.96694215,940,-7914,1104,-57,-122,-516,-1976,-4136,-738,3636,-968,-6789,59.89263537,64.55914102,59.76,67.78226877,-0.023844748,-0.058853861,0,0.202614635
202,-5,0.9,2,24.79338843,1342,-8374,1428,-236,-55,-633,-2128,-5086,-660,3761,-494,-7209,59.86015602,64.55,59.75628517,67.91235937,-0.032479344,-0.009141021,-0.003714834,0.130090592
202,-5,0.9,2,25.61983471,1403.040844,-8242.814815,1293.185185,-264.2592288,-76.02968617,-753.8909086,-2404.464746,-6252.776643,-833.7037037,3846.11079,-296.2614094,-7379.405677,59.82052685,64.55,59.73407964,68.00662137,-0.039629168,0,-0.022205526,0.094262005
202,-5,0.9,2,26.44628099,1437.2982,-7999.185185,1042.814815,-278.3577805,-118.8371501,-876.626107,-2739.898592,-7460.049155,-1156.296296,3915.218668,-161.6862603,-7492.569587,59.82,64.57856934,59.70886885,68.07156157,-0.000526854,0.028569335,-0.025210786,0.064940201
202,-5,0.9,2,27.27272727,1448,-7868,908,-295,-153,-998,-2954,-8236,-1330,3973,-112,-7571,59.82,64.62950601,59.7,68.09,0,0.050936678,-0.008868854,0.018438429
202,-5,0.9,2,28.09917355,1440.296296,-7877.333333,923.2592593,-318.323872,-169.4324549,-1115.893918,-3040.982192,-8568.601683,-1219.76,4026.046254,-160.2181721,-7632.060654,59.82,64.68224529,59.7,68.09,0,0.052739279,0,0
202,-5,0.9,2,28.92561983,1421.037037,-7900.666667,961.4074074,-342.460166,-181.0730839,-1231.38315,-3113.424966,-8796.824047,-956.88,4076.086547,-283.0945163,-7680.982255,59.82,64.69,59.7,68.07941532,0,0.007754708,0,-0.010584677
202,-5,0.9,2,29.75206612,1396,-7931,1011,-369.1024039,-190.5360199,-1346.053033,-3168.576644,-8975.34557,-643.12,4120.503713,-447.9617744,-7722.073529,59.82,64.69,59.7,68.01741935,0,0,0,-0.061995968
202,-5,0.9,2,30.5785124,1370.962963,-7961.333333,1060.592593,-399.9441076,-200.435396,-1461.48891,-3203.685548,-9158.844728,-380.24,4156.680586,-622.1526884,-7759.643202,59.82,64.76616935,59.7,67.89399467,0,0.076169347,0,-0.123424682
202,-5,0.9,2,31.40495868,1351.703704,-7984.666667,1098.740741,-436.678799,-213.385345,-1579.276119,-3216,-9402,-270,4182,-773,-7798,59.81957259,64.83,59.70052587,67.73219821,-0.000427415,0.063830653,0.000525874,-0.161796462
202,-5,0.9,2,32.23140496,1344,-7994,1114,-481,-232,-1701,-3134.113258,-9806.5852,-623,4199.210759,-893.4595009,-7845.046651,59.80701728,64.83,59.7095189,67.54798405,-0.012555305,0,0.00899303,-0.18421416
202,-5,0.9,2,33.05785124,2138,-7646,1026,-556,-271,-1830,-2964,-10118,-976,4209,-1024,-7872,59.78444444,64.83,59.728682,67.367779,-0.022572836,0,0.019163093,-0.180205047
202,-5,0.9,2,33.88429752,2328.701777,-7888.253264,1021.381471,-588.3524096,-396.726257,-1836.198519,-2645.655469,-10190.04985,-931.6445977,4212.670485,-1230.196915,-7841.377424,59.76187161,64.83,59.75675179,67.24672846,-0.022572836,0,0.028069794,-0.121050545
202,-5,0.9,2,34.7107438,2398,-8302,1020,-602,-495,-1841,-2228.057404,-10230.85391,-824.1780842,4215.11302,-1462.539327,-7765.643738,59.74039068,64.83,59.86448128,67.18968065,-0.021480925,0,0.107729493,-0.057047807
202,-5,0.9,2,35.53719008,1914,-8658,1110,-576,-490,-1859,-1988,-10292,-692,4216,-1587,-7669,59.71701645,64.83,59.94,67.17,-0.023374238,0,0.075518715,-0.019680652
202,-5,0.9,2,36.36363636,1935.424,-8625.552,1057.584,-586.3288421,-485.710359,-1901.315323,-1934.625701,-10470.32835,-494.7337485,4179.155518,-1610.196197,-7549.032444,59.70165623,64.83,59.94,67.17,-0.015360214,0,0,0
202,-5,0.9,2,37.19008264,1986.512,-8548.176,932.592,-613.1065263,-481.4141538,-1970.341942,-1892.703914,-10767.56939,-209.2420729,4078.066554,-1628.135721,-7384.135423,59.7,64.83,59.95714635,67.10427234,-0.001656232,0,0.017146346,-0.065727661
202,-5,0.9,2,38.01652893,2047.488,-8455.824,783.408,-650.0197895,-477.6627692,-2055.910899,-1862.469276,-11092.64626,100.216477,3926.899831,-1640.877147,-7169.722181,59.7,64.83,59.99940159,66.94229391,0,0,0.042255241,-0.161978425
202,-5,0.9,2,38.84297521,2098.576,-8378.448,658.416,-690.7553684,-475.0075897,-2147.853237,-1844.156425,-11354.48209,369.3833513,3739.822072,-1648.479049,-6901.205959,59.7,64.87152832,60,67.06513536,0,0.04152832,0.000598412,0.122841441
202,-5,0.9,2,39.66942149,2120,-8346,606,-729,-474,-2236,-1838,-11462,534,3531,-1651,-6574,59.7,64.89422959,60.00257813,67.16795489,0,0.022701275,0.002578125,0.102819531
202,-5,0.9,2,40.49586777,1893,-8490,865,-766.5707916,-499.202381,-2321.840911,-1975.069243,-11439.91571,620.5579345,3243.458456,-1527.617636,-6085.369284,59.7,64.83980256,60.050625,67.11682169,0,-0.05442703,0.048046875,-0.051133198
202,-5,0.9,2,41.32231405,1666,-8634,1124,-807,-532,-2415,-2348.582931,-11388.49808,686.056745,2822.787126,-1250.013051,-5319.458398,59.68285365,64.83,60.06,67.03114406,-0.017146346,-0.009802565,0.009375,-0.08567763
202,-5,0.9,2,42.14876033,1700,-8556,1008,-849,-543,-2520,-2902,-11330,712,2287,-957,-4252,59.64059841,64.83,60.06,66.94114363,-0.042255241,0,0,-0.090000427
202,-5,0.9,2,42.97520661,1984,-8458,598,-917,-564,-2659,-4270,-11264,418,1451,-683,-2147,59.64,64.84277986,60.06,66.94,-0.000598412,0.012779865,0,-0.001143633
202,-5,0.9,2,43.80165289,2304,-7922,116,-927,-522,-2746,-4696,-11776,-6,940,-830,-604,59.64,64.87289368,60.06340729,66.94,0,0.03011381,0.003407287,0
202,-5,0.9,2,44.62809917,2646,-8294,162,-874,-588,-2881,-4668.447998,-11837.84658,221,504.25595,-604,457.3172233,59.64,64.89716393,60.10334215,66.94,0,0.024270251,0.039934867,0
202,-5,0.9,2,45.45454545,2379.665102,-8518.539655,287.7459225,-898.7672684,-637.0090589,-3003.587005,-4580,-11896,448,125,-378,1309,59.62101563,64.86333278,60.14601262,66.94,-0.018984375,-0.033831147,0.042670466,0
202,-5,0.9,2,46.28099174,1867.107982,-8699.294539,472.8312946,-947.756759,-678.3357832,-3123.760546,-3566,-12232,-418,-184,-459,2007,59.58,64.76,60.17959699,66.94,-0.041015625,-0.103332779,0.033584368,0
202,-5,0.9,2,47.10743802,1538,-8986,624,-983,-712,-3267,-3666.069368,-11971.45541,791.3406593,-107.7170125,-1860.29978,2465.489052,59.58,64.70847357,60.18,66.86373431,0,-0.051526428,0.000403012,-0.076265687
202,-5,0.9,2,47.9338843,1457.460093,-10064.39813,703.53125,-997.4284897,-732.9378342,-3451.076835,-3964,-11146,3132,103,-3192,2965,59.58,64.69,60.18494606,66.77491722,0,-0.018473572,0.004946061,-0.088817096
202,-5,0.9,2,48.76033058,1424,-10948,784,-1004,-760,-3694,-5856,-2804,6032,996,-1094,3919,59.58,64.69,60.2315978,66.73841413,0,0,0.04665174,-0.036503084
202,-5,0.9,3,49.58677686,1714,-10424,924,-933,-866,-4070,-2144.962963,-1773.58551,2656.962963,251.1481481,697.7931124,3207.074074,59.57720511,64.69652141,60.24,66.67883337,-0.002794891,0.006521412,0.008402198,-0.059580764
202,-5,0.9,3,50.41322314,1659.995445,-11940,1168.670886,-910.3514608,-1124.125507,-4308.927645,4746.962963,-1208.348311,-3610.962963,-1132.148148,2250.007667,1884.925926,59.56226229,64.73138798,60.24,66.58441938,-0.014942817,0.034866572,0,-0.094413992
202,-5,0.9,3,51.23966942,1556,-13456,1332,-890,-1376,-4501,8458,-1036,-6986,-1877,2912,1173,59.53880457,64.78612266,60.24,66.48181947,-0.023457718,0.054734675,0,-0.102599912
202,-5,0.9,3,52.0661157,1411.515661,-13354.288,1097.792,-834.6014097,-1500.820606,-4672.768838,6823.054878,-3842.740741,-6745.575733,-1498.222222,2003.037037,1924.188217,59.51184072,64.84903832,60.23720511,66.39808845,-0.026963853,0.062915658,-0.002794891,-0.08373102
