locomotion_mode,terrain_info,walk_speed_info,gait_phase,gait_percentage,left_accel_x,left_accel_y,left_accel_z,left_gyro_x,left_gyro_y,left_gyro_z,right_accel_x,right_accel_y,right_accel_z,right_gyro_x,right_gyro_y,right_gyro_z,left_hip_angle,left_knee_angle,right_hip_angle,right_knee_angle,left_hip_angle_vel,left_knee_angle_vel,right_hip_angle_vel,right_knee_angle_vel
201,5,1.1,4,85.59322034,7624,-13096,538,2369,3590,8006,-1334,-8547.156147,1677.238044,-1055.466268,657.7186046,1714.065261,59.62728608,65.93182442,60.3,65.4,0.037632524,-0.027466042,-0.037858742,-0.18298392
201,5,1.1,4,86.44067797,8994.108976,-13916.26646,746.3778066,1946.270908,2877.511903,7302.096456,-1620,-9113.073152,2267.3968,-1144.214664,1072.414858,1891.964798,59.67493614,65.91351318,60.3,65.49570313,0.047650054,-0.01831124,0,0.095703125
201,5,1.1,4,87.28813559,10166,-14406,1052,1418,1880,6331,-1774,-9880,2578,-1240,1288,2068,59.71457101,65.91160089,60.29421578,65.53325174,0.039634867,-0.001912291,-0.005784222,0.037548616
201,5,1.1,4,88.13559322,11014,-13280,1544,718,569,5044,-103,-11737.71202,2321.742618,-1356.768085,1142.220944,2212.426342,59.75111416,65.92719292,60.25234688,65.48440469,0.036543154,0.015592032,-0.041868899,-0.048847048
201,5,1.1,4,88.98305085,10822,-12250,980,323,-131,4080,1568,-13176,1692,-1468,900,2387,59.78755819,65.95342017,60.21380538,65.43943961,0.036444034,0.026227246,-0.038541497,-0.04496508
201,5,1.1,4,89.83050847,9694,-10772,-980,18,-591,2277,1322,-10862,36,-1547,708,2711,59.82356843,65.98326608,60.17644,65.39554271,0.036010236,0.029845906,-0.037365386,-0.043896906
201,5,1.1,4,90.6779661,8282.017927,-8952.129259,-389.6296296,104.3703704,-385.5925926,741.2017087,1013.078281,-11143.31785,78.37464596,-1646.24551,766.8518519,2892.048358,59.85876988,66.03396819,60.14398382,65.34418914,0.03520145,0.050702117,-0.032456177,-0.051353564
201,5,1.1,4,91.52542373,6590.182946,-6788.58323,1086.296296,320.2962963,127.9259259,-818.2262573,683.2399455,-11768.19126,188.7492919,-1753.680422,876.1481481,3028.129653,59.89590959,66.04716393,60.09218807,65.33,0.037139708,0.013195732,-0.051795747,-0.014189142
201,5,1.1,4,92.37288136,4857.779361,-4582.1796,3005,601,795.5,-2266.222155,434,-12408,342,-1842,935,3183,59.94306588,66.02289368,60.00784042,65.33,0.04715629,-0.024270251,-0.084347649,0
201,5,1.1,4,93.22033898,3324.091473,-2633.736059,4923.703704,881.7037037,1463.074074,-3467.72424,277.9054307,-12935.06986,627.5496363,-1897.101373,819.0774908,3390.978375,59.98447597,65.99277986,60.0244043,65.33,0.041410093,-0.03011381,0.016563874,0
201,5,1.1,4,94.06779661,2228.403585,-1244.070296,6399.62963,1097.62963,1976.592593,-4287.670769,176,-13526,1084,-1953,691,3623,60,65.98,60.05960297,65.32882672,0.01552403,-0.012779865,0.035198674,-0.001173277
201,5,1.1,4,94.91525424,1810,-714,6990,1184,2182,-4591,114.3189655,-14486.83982,2017.028887,-2070.31371,671.4225092,3861.30836,60,65.98,60.02628409,65.23751081,0,0,-0.033318879,-0.091315917
201,5,1.1,4,95.76271186,4840,-3626,2276,-147,628,-4484,86,-15170,2696,-2152,664,4121,60.009375,65.9909375,59.98516878,65.15912839,0.009375,0.0109375,-0.041115307,-0.078382416
201,5,1.1,4,96.61016949,2915.777778,-3876.318353,-2068.391115,-884.9927307,-228.2161042,-4329.089619,1420,-15256.5244,2514.974798,-2115.576696,671.236,4416.024495,60.05742188,66.04699219,59.94735231,65.11823076,0.048046875,0.056054687,-0.037816471,-0.04089763
201,5,1.1,4,97.45762712,-657.7777778,-3966.712663,-5946.195557,-1432.051921,-861.6080521,-4163.322587,2754,-15288,2210,-2042,691,4742,60.06,66.05,59.90944044,65.06856934,0.002578125,0.003007813,-0.037911878,-0.049661424
201,5,1.1,4,98.30508475,-2582,-4232,-7624,-1646,-1109,-4086,2157.58176,-15033.10968,1912.294826,-1908.923304,830.557578,5115.930799,60.06016195,66.05040488,59.87757456,65.04037788,0.00016195,0.000404875,-0.031865872,-0.028191452
201,5,1.1,4,99.15254237,-782,-10650,-4982,-1110,109,-4217,992,-14624,1704,-1813,1039,5485,60.07555556,66.08888889,59.85837045,65.0762963,0.015393605,0.038484014,-0.019204112,0.035918413
201,5,1.1,4,100,314.0019677,-11966.66639,1554.059792,-551.8268231,426.5182482,-4360.910039,-431.9467403,-14258.89032,1646.730375,-1834.170396,1177.014422,5806.555372,60.10196844,66.15492111,59.84320654,65.13792637,0.026412889,0.066032223,-0.01516391,0.061630075
201,5,1.1,1,0,1546,-12430,6358,-237,544,-4447,-2224,-14048,1624,-1888,1345,6074,60.11936556,66.19841389,59.82473701,65.17851963,0.017397112,0.043492779,-0.018469529,0.04059326
201,5,1.1,1,0.877192982,5271.071765,-9284.850459,4627.397899,-788.5,363.3638393,-4451.015675,-4626.252296,-15368.9901,2822,-2114.095427,1740.293505,6305.081828,60.12,66.17535996,59.79202495,65.18,0.000634444,-0.023053928,-0.032712061,0.001480368
201,5,1.1,1,1.754385965,8136,-5990,1404,-1340,129,-4455,-6718,-17524,4020,-2394,2164,6426,60.12,66.11394779,59.75750155,65.17981106,0,-0.061412172,-0.034523403,-0.000188942
201,5,1.1,1,2.631578947,4433,-5758.149541,-3099.397899,-1194.28942,29.63616071,-4549.417098,-7644,-19140,3904,-2532,2387,6165,60.12,66.04190529,59.73229646,65.16185185,0,-0.0720425,-0.025205088,-0.017959206
201,5,1.1,1,3.50877193,730,-5676,-6110,-929,-16,-4640,-3692,-17006,5164,-2498,3128,5533,60.12,65.95258993,59.71113157,65.13103681,0,-0.089315358,-0.021164887,-0.030815037
201,5,1.1,1,4.385964912,1885.836857,-6646,-3116.660018,-583.2105799,22,-4481.483506,-816,-13482,5882,-2344,3526,4806,60.12,65.85124935,59.70035151,65.11074018,0,-0.101340581,-0.010780065,-0.02029663
201,5,1.1,1,5.263157895,3528,-7616,1316,-357,60,-4147,3102,-9264,5986,-1897,4142,3019,60.12,65.72650417,59.7,65.14523352,0,-0.124745178,-0.000351508,0.034493337
201,5,1.1,1,6.140350877,4310,-7388,3756,-725,-176,-3612,2537.625,-6882.194091,5041.625,-1432.249778,3655.320372,2548.790235,60.11865234,65.59975233,59.7,65.25153422,-0.001347656,-0.126751848,0,0.106300697
201,5,1.1,1,7.01754386,4297.523705,-7434.973761,3643.019852,-700.0824035,-175.5372052,-3216.778803,1296,-5014.440818,2964,-955.9707027,2553.43766,2296.035359,60.02783203,65.51076177,59.7,65.36334508,-0.090820313,-0.088990558,0,0.111810866
201,5,1.1,1,7.894736842,4261.963369,-7556.116618,3347.209029,-634.4583517,-174.1852418,-2867.11111,54.375,-3539.967137,886.375,-498.4562766,1373.586117,2079.012803,60,65.42945476,59.68868313,65.42675155,-0.027832031,-0.081307008,-0.011316872,0.063406471
201,5,1.1,1,8.771929825,4206.121819,-7721.760933,2933.261967,-541.8209515,-171.9987414,-2552.423345,-510,-2338,-58,-90,653,1716,60,65.35222835,59.64444444,65.46697937,0,-0.077226411,-0.044238683,0.040227819
201,5,1.1,1,9.649122807,4132.801881,-7902.239067,2465.873099,-435.8633095,-169.0323355,-2262.14193,242,-1203.507114,1092,246.7677991,405.8267466,945.3610649,60,65.28070845,59.64735718,65.47,0,-0.071519901,0.002912733,0.003020626
201,5,1.1,2,10.52631579,4044.806382,-8067.883382,2009.736859,-330.2785324,-165.3406556,-1985.693285,994,-622,2242,567,241,5,60,65.21429936,59.67280884,65.47,0,-0.066409086,0.02545166,0
201,5,1.1,2,11.40350877,3944.938146,-8189.026239,1629.547682,-238.759727,-160.9783332,-1712.503835,870.3335169,-722.3657391,1861.152,918.1181532,116.0485844,-858.81806,60,65.14651835,59.69606323,65.47,0,-0.067781008,0.023254395,0
201,5,1.1,2,12.28070175,3836,-8236,1390,-175,-156,-1432,560.2005507,-986.0572173,952.976,1283.164653,21.44451981,-1745.502529,60,65.06194871,59.7,65.48159482,0,-0.084569639,0.003936768,0.01159482
201,5,1.1,2,13.15789474,3676.268543,-8182.5625,1267.760905,-134.3743097,-142.9730618,-1122.438464,154.900826,-1356.965826,-130.976,1651.952077,-63.98383691,-2605.977968,60,64.97378696,59.7,65.53280745,0,-0.088161754,0,0.051212635
201,5,1.1,2,14.03508772,3438.921607,-8065,1178.191202,-100.8139781,-120.6129597,-804.0214572,-254.2659324,-1778.982956,-1039.152,2014.293,-161.4081291,-3391.168938,60.03,64.97,59.7,65.56365715,0.03,-0.00378696,0,0.030849692
201,5,1.1,2,14.9122807,3149.113867,-7947.4375,1094.025898,-70.84665745,-98.19637776,-529.0937216,-576,-2196,-1420,2360,-292,-4052,60.06,64.96464278,59.7,65.5905408,0.03,-0.005357216,0,0.026883654
201,5,1.1,2,15.78947368,2832,-7894,988,-41,-85,-350,-819.252677,-2639.012325,-1214.208096,2702.51599,-553.4368332,-4586.707903,60.06,64.85920822,59.7,65.60752945,0,-0.105434561,0,0.016988646
201,5,1.1,2,16.66666667,2369.097603,-7964,811.4749536,-8.559049975,-79.87834821,-241.0277372,-1037.449034,-3155.481896,-827.0828579,3032.813605,-877.3850833,-5046.554053,60.06,64.83,59.7,65.61,0,-0.029208223,0,0.002470552
201,5,1.1,2,17.54385965,1769.808981,-8118,586.9777365,24.1487583,-75.75297619,-149.1357664,-1206,-3714,-604,3307,-1036,-5462,60.06,64.83,59.7,65.61,0,0,0,0
201,5,1.1,2,18.42105263,1251.115868,-8272,393.9916512,53.03218742,-73.00111607,-85.67591241,-1314.423141,-4446.29095,-581.2857579,3524.741156,-1029.420673,-5849.605115,60.06,64.8421755,59.7,65.6409589,0,0.012175496,0,0.030958904
201,5,1.1,2,19.29824561,1030,-8342,312,74,-72,-62,-1392.096461,-5317.5364,-565.0317848,3715.809911,-1010.788462,-6208.547279,60.06,64.88364423,59.7,65.69886265,0,0.04146873,0,0.057903744
201,5,1.1,2,20.1754386,1332,-8282,528,86,-90,-79,-1474.22155,-6046.51365,-555.2619193,3881.473711,-981.7620192,-6543.215803,60.06,64.94046174,59.7,65.73983,0,0.056817512,0,0.040967352
201,5,1.1,2,21.05263158,1090,-7680,716,51,-96,-140,-1596,-6352,-552,4023,-944,-6858,60.06,65.01365282,59.68748219,65.77889927,0,0.073191086,-0.01251781,0.039069272
201,5,1.1,2,21.92982456,852,-8000,1254,34,-92,-219,-1846.723856,-6193,-672.0616114,4147.864297,-840.1528726,-7153.381079,60.06,65.1058465,59.64229595,65.81923126,0,0.092193679,-0.045186241,0.040331989
201,5,1.1,2,22.80701754,690,-8386,1496,-11,-143,-286,-2162,-6034,-860,4236,-709,-7416,60.06,65.11,59.64,65.89477811,0,0.004153499,-0.00229595,0.075546852
201,5,1.1,2,23.68421053,481.9538098,-8390.671264,1416.649974,-72.54743249,-168.0255102,-402.0790998,-2444,-6138,-984,4277,-625,-7633,60.05770405,65.10732139,59.64,66.00255269,-0.00229595,-0.002678608,0,0.107774574
201,5,1.1,2,24.56140351,356,-8392,1242,-133,-179,-554,-2542,-6694,-1068,4358,-575,-7878,60.01251781,65.05460411,59.64,66.13214201,-0.045186241,-0.052717281,0,0.129589325
201,5,1.1,2,25.43859649,620,-8322,924,-175,-142,-738,-2485.096774,-7175.237893,-972,4413.730245,-604.6483254,-8049.81035,60,65.04433397,59.64,66.26821815,-0.01251781,-0.010270138,0,0.13607614
201,5,1.1,2,26.31578947,700.6750911,-8183.857332,899.4043559,-219.8446635,-152.3125,-854.6324568,-2398,-7644,-876,4441,-677,-8191,60,65.07024042,59.64,66.40658845,0,0.025906447,0,0.138370295
201,5,1.1,2,27.19298246,741.1783942,-7994.095406,891.1829506,-266.6781936,-175,-946.1599356,-2352.329152,-8152.874083,-912.2641737,4411.6,-877.7842692,-8342.637523,60,65.099653,59.64,66.54275001,0,0.029412583,0,0.136161559
201,5,1.1,2,28.07017544,783.0925003,-7826.285777,882.87007,-308.4226269,-197.6875,-1030.107447,-2294,-8664,-1008,4357,-1202,-8427,60,65.11,59.64229595,66.66019025,0,0.010346996,0.00229595,0.117440244
201,5,1.1,2,28.94736842,868,-7754,858,-338,-208,-1124,-2116,-9150,-1340,4297,-1624,-8375,60,65.11,59.68748219,66.74694214,0,0,0.045186241,0.086751885
201,5,1.1,2,29.8245614,1190,-8102,492,-354,-201,-1235,-2450.261851,-9617.811063,-1599.436742,4242.077554,-2230.047309,-8218.851764,60,65.06129395,59.7,66.84628099,0,-0.048706055,0.01251781,0.099338856
201,5,1.1,2,30.70175439,1225.706248,-8509.246368,661.4216439,-419.1452614,-230.1282051,-1374.932818,-3154,-9956,-1732,4168,-2861,-7989,60,64.9023584,59.7,66.93884826,0,-0.158935547,0,0.092567271
201,5,1.1,2,31.57894737,1242.212961,-8909.400962,977.06551,-521.4099978,-291.2564103,-1522.297734,-4272,-10086,-1354,3988,-3353,-7731,59.99877386,64.9,59.7,66.85838999,-0.001226139,-0.002358398,0,-0.080458277
201,5,1.1,2,32.45614035,1264,-9090,1150,-593,-345,-1622,-5313.297212,-10681.01655,-1105.967167,3714.912784,-3329.011178,-7459.874347,59.99464562,64.9,59.7,66.79208608,-0.004128244,0,0,-0.066303907
201,5,1.1,2,33.33333333,1315.816514,-8924.592593,1153.158859,-617.511585,-373.2441993,-1676.336011,-6292,-11418,-918,3391,-3266,-7156,59.98778308,64.9,59.7,66.84359967,-0.006862532,0,0,0.051513591
201,5,1.1,2,34.21052632,1377.908257,-8617.407407,1154.582649,-633.8090152,-396.8730139,-1717.001339,-7186,-11818,-780,3051,-3052,-6768,59.97836952,64.9,59.70615111,66.91986954,-0.00941356,0,0.00615111,0.076269872
201,5,1.1,2,35.0877193,1408,-8452,1158,-657,-435,-1733,-8104,-12868,-828,2514,-2767,-5951,59.9665882,64.9,59.73761022,67.03448443,-0.011781327,0,0.031459107,0.114614892
201,5,1.1,2,35.96491228,1348.997791,-10539,1460.414252,-703.8807631,-589.4368143,-1695,-8619.177855,-12832.43732,-933.7879855,2056.101757,-2404.942712,-5061.184639,59.95262236,64.9,59.78312477,67.1368818,-0.013965835,0,0.045514557,0.102397365
201,5,1.1,2,36.84210526,1158,-12626,1760,-767,-718,-1657,-9019.548302,-12740.72303,-1106.930417,1640.10984,-1965.100705,-4141.395404,59.93568498,64.89699219,59.82897447,67.16785808,-0.016937378,-0.003007813,0.0458497,0.030976279
201,5,1.1,2,37.71929825,-1232,-11070,1198,-841,-584,-1744,-9343.988786,-12615.31778,-1338.942744,1249.145816,-1496.127697,-3188.493979,59.89631887,64.8409375,59.88272832,67.10496817,-0.039366113,-0.056054688,0.053753844,-0.062889912
201,5,1.1,2,38.59649123,54,-9352,58,-853,-409,-1953,-9631.376753,-12478.68222,-1621.340416,866.3312531,-1046.677405,-2199.342044,59.85712071,64.84603181,59.94231516,66.99201406,-0.039198165,0.005094306,0.059586841,-0.112954106
201,5,1.1,2,39.47368421,310.3042936,-9353.316056,332.8738128,-920.9690633,-533.8298917,-2078.561023,-9920.589647,-12353.27697,-1945.638883,474.7877175,-665.4035473,-1170.801282,59.82259811,64.89673392,59.99550392,66.87931801,-0.034522596,0.050702117,0.053188756,-0.112696054
201,5,1.1,2,40.35087719,400,-9358,854,-1034,-674,-2207,-10250.50491,-12261.56268,-2303.353594,57.63677738,-400.9598397,-99.73337313,59.80165299,64.92140484,60.03711963,66.78899442,-0.020945119,0.024670919,0.041615717,-0.090323588
201,5,1.1,2,41.22807018,-164,-11134,1462,-1166,-693,-2434,-10660,-12226,-2686,-402,-302,1017,59.78626871,64.93935317,60.07384786,66.69961378,-0.015384285,0.017948332,0.036728225,-0.089380635
201,5,1.1,2,42.10526316,2,-10972,1276,-1246,-698,-2647,-11210,-21342,-3236,-943,-1161,2267,59.76904797,64.95944404,60.10787638,66.61027846,-0.01722074,0.020090863,0.034028519,-0.089335322
201,5,1.1,2,42.98245614,-7.862192501,-11037.24555,1379.831926,-1276.97375,-777.1717105,-2856.349111,-10644,-5918,2580,-57,-1140,3482,59.74159575,64.99147163,60.14132979,66.52035413,-0.02745222,0.032027589,0.033453411,-0.08992433
201,5,1.1,2,43.85964912,-32,-11188,1534,-1304,-880,-3086,-10980,-3262,4178,-500,-71,4070,59.70368297,65.0357032,60.17633269,66.42920647,-0.037912778,0.044231574,0.035002903,-0.09114766
201,5,1.1,2,44.73684211,-312.2716875,-11721.87347,1638.13354,-1356.514971,-924.8943577,-3361.314002,-3552,-9866,822,-961,1013,3014,59.65813817,65.0888388,60.21639045,66.31513479,-0.045544795,0.053135595,0.040057764,-0.114071677
201,5,1.1,2,45.61403509,-968.9344267,-12792.90471,1743.264264,-1430.748052,-953.9274419,-3669.812428,224.5036858,-9636.422338,-2682.336937,-1353.064192,206.962963,3366.222935,59.64,65.11,60.24700017,66.2717586,-0.018138174,0.021161203,0.030609715,-0.043376194
201,5,1.1,2,46.49122807,-1811.413422,-14118.26335,1840.504223,-1512.756169,-976.4269003,-4004.66276,2947.696287,-9117.511342,-5970.612913,-1701.14748,-1289.962963,4023.779203,59.64,65.11,60.26473917,66.29614289,0,0,0.017739005,0.024384287
201,5,1.1,2,47.36842105,-2649.13388,-15415.11902,1920.965465,-1588.596248,-1001.720381,-4359.032479,3994,-8564,-7426,-1948,-2096,4388,59.62285365,65.13000407,60.27927959,66.33029717,-0.017146346,0.020004071,0.014540419,0.034154285
201,5,1.1,2,48.24561404,-3291.521004,-16400.64136,1975.760041,-1644.325217,-1039.135531,-4726.089065,2961.81944,-7940.993458,-7169.031614,-2121.086538,-1644.59375,4403.591946,59.58059841,65.17930185,60.29767657,66.34979646,-0.042255241,0.049297781,0.018396976,0.019499288
201,5,1.1,2,49.12280702,-3548,-16792,1996,-1666,-1098,-5099,619.3518398,-7202.04974,-6501.584305,-2271.576923,-651.5,4414.498396,59.58,65.18,60.33323955,66.33539444,-0.000598412,0.000698148,0.035562983,-0.014402018
201,5,1.1,2,50,-2818.775493,-15273.96926,1507.416765,-1535.343891,-1317.232278,-5515.380912,-1902.29168,-6584.581153,-5578.844843,-2377.778846,341.59375,4420.905649,59.57860255,65.18246224,60.38167195,66.30097866,-0.001397446,0.002462241,0.0484324,-0.034415783
201,5,1.1,2,50.87719298,-1506,-13490,836,-1358,-1608,-5912,-3472,-6326,-4556,-2418,793,4423,59.55940229,65.21858302,60.41615237,66.27324123,-0.019200267,0.036120783,0.03448042,-0.027737429
201,5,1.1,3,51.75438596,-258.2866187,-13040.03074,477.5832349,-1267.656109,-1848.942308,-6182.938877,-4152.33332,-6628.1875,-2875.030157,-2221.279394,728.3310848,4303.289038,59.53318975,65.27681836,60.42,66.27,-0.026212539,0.05823534,0.003847628,-0.003241228
201,5,1.1,3,52.63157895,1218,-12856,302,-1224,-1982,-6479,-4717.35184,-7293,-504.4156953,-1770.828383,579.2995595,4011.604102,59.52,65.33,60.42,66.27,-0.013189749,0.053181635,0,0
201,5,1.1,3,53.50877193,3138,-15728,1836,-1485,-1863,-7016,-5103.19444,-7957.8125,1610.906614,-1276.213181,413.3682544,3649.117115,59.52,65.37902635,60.44808342,66.31663923,0,0.049026354,0.028083416,0.046639232
201,5,1.1,3,54.38596491,5278,-19674,3534,-1630,-1913,-6927,-5246,-8260,2526,-947,298,3317,59.52,65.4,60.5030483,66.34758333,0,0.020973646,0.054964887,0.030944102
201,5,1.1,3,55.26315789,5201.571737,-19060.27084,3361.023338,-1662.426756,-1907.695452,-6610.047399,-5183.199914,-8134.375,2086,-777.8346621,230.9129956,3038.890099,59.52,65.4,60.5951155,66.293,0,0,0.092067192,-0.054583333
201,5,1.1,3,56.14035088,4989.207337,-17435.93335,2883.496905,-1687.621803,-1888.803224,-6006.548678,-5020.533104,-7858,1118,-633.7991988,171.2004405,2761.831803,59.52,65.42214844,60.61,66.2460642,0,0.022148438,0.014884504,-0.0469358
201,5,1.1,3,57.01754386,4666.287381,-15126.26252,2163.526027,-1706.180896,-1851.855441,-5241.399207,-4796.599742,-7581.625,150,-530.114136,128.3876652,2472.107605,59.52,65.47,60.61,66.2,0,0.047851562,0,-0.0460642
201,5,1.1,3,57.89473684,4258.192452,-12456.53336,1263.216032,-1718.69979,-1792.384227,-4439.494356,-4550,-7456,-290,-482,112,2156,59.52,65.47,60.61,66.06591271,0,0,0,-0.134087289
201,5,1.1,3,58.77192982,3790.303131,-9752.020852,244.6722474,-1725.77424,-1705.921705,-3725.729497,-4187.923728,-7666.743363,434,-472.827592,130.5,1766.814037,59.52,65.47483615,60.61,65.96266854,0,0.004836149,0,-0.103244171
201,5,1.1,3,59.64912281,3288,-7338,-830,-1728,-1588,-3225,-3822,-7942,1158,-464,149,1397,59.52,65.54189294,60.61,65.92221759,0,0.067056788,0,-0.040450946
201,5,1.1,4,60.52631579,2522,-5108,-2376,-911,100,-2946,-3604.847269,-8064.678466,944.5745317,-429.9173459,135.5613351,1119.778463,59.52,65.63581722,60.61,65.88145798,0,0.093924283,0,-0.040759614
201,5,1.1,4,61.40350877,2223.467773,-4564.101455,-2215.259259,-503.3707157,898.1107569,-2428.601498,-3431.313062,-8157.339233,523.5935078,-372.4339355,108.1226701,882.4200099,59.52,65.68944026,60.61,65.8357738,0,0.053623041,0,-0.04568418
201,5,1.1,4,62.28070175,1975.434306,-4198.77119,-1813.407407,-181.1215577,1584.821769,-1678.00668,-3260,-8194,224,-315,86,691,59.4844043,65.69,60.61,65.75047758,-0.035595703,0.000559739,0,-0.085296217
201,5,1.1,4,63.15789474,1779.585195,-3949.952559,-1291,77.5437833,2145.099617,-779.7323331,-3083.561456,-8184.194146,101.0564403,-264.1083432,73.27188293,521.2784705,59.46,65.67615723,60.61,65.67217535,-0.024404297,-0.013842773,0,-0.07830223
201,5,1.1,4,64.03508772,1637.606042,-3755.588915,-768.5925926,294.4216169,2563.910884,180.7047546,-2916.732149,-8157.9546,-7.038867533,-211.6699707,61.46025801,353.5475534,59.46,65.55384277,60.61,65.6221938,0,-0.122314453,0,-0.049981557
201,5,1.1,4,64.9122807,1551.182444,-3553.623611,-366.7407407,491.3082527,2826.222151,1117.787795,-2751.236714,-8120.048387,-96.93904448,-159.2624162,51.04619124,200.6807481,59.48214126,65.55631127,60.61,65.58073857,0.022141258,0.002468497,0,-0.041455227
201,5,1.1,4,65.78947368,1522,-3282,-206,690,2917,1946,-2578.799787,-8075.242533,-165.2972115,-108.4632136,42.51074864,75.55155446,59.52,65.61,60.61,65.54,0.037858742,0.053688729,0,-0.040738568
201,5,1.1,4,66.66666667,1726.754277,-2892.817853,-345.4814815,894.2735088,2908.906823,2675.76594,-2391.146004,-8028.304062,-208.7664897,-60.84989696,36.33499622,-8.966528121,59.52,65.71416705,60.61,65.49851715,0,0.104167052,0,-0.041482846
201,5,1.1,4,67.54385965,2173.286332,-2489.727915,-604.5185185,1077.529413,2885.702534,3373.573308,-2180,-7984,-224,-18,33,-40,59.52494606,65.76,60.61,65.45770203,0.004946061,0.045832948,0,-0.040815127
201,5,1.1,4,68.42105263,2610,-2238,-744,1216,2849,4038,-1881.455636,-7931.505376,-117.5145936,25.13909918,31.35727182,-24.19880549,59.5715978,65.76,60.61,65.41676549,0.04665174,0,0,-0.040936533
201,5,1.1,4,69.29824561,2986.37832,-2130.760758,-674,1300.850185,2714.701983,4662.204469,-1495.86759,-7866.193548,146.7362192,70.24648658,29.97693079,16.96358354,59.58,65.86533601,60.61,65.36790534,0.008402198,0.105336012,0,-0.048860157
201,5,1.1,4,70.1754386,3282,-2084,-604,1378,2456,5256,-1111.351727,-7802.129032,485.9443288,110.6843244,28.91795386,74.12537531,59.58,66.12,60.61,65.33,0,0.254663988,0,-0.037905336
201,5,1.1,4,71.05263158,3457.606452,-2349.781226,-883,1476.375657,1991.284308,5809.388333,-816.023909,-7753.376344,817.3016256,139.8147748,28.23931795,137.9247781,59.58,66.16833497,60.61,65.33,0,0.048334975,0,0
201,5,1.1,4,71.92982456,3540,-2892,-1162,1595,1324,6387,-698,-7734,1058,151,28,199,59.58,66.19787223,60.61,65.33535722,0,0.029537254,0,0.005357216
201,5,1.1,4,72.80701754,3276,-3676,-854,1758,469,7091,-860.5,-7825.25,1231.743493,117.7371904,32.8244382,260.3611503,59.58,66.218242,60.61,65.38166294,0,0.020369767,0,0.04630572
201,5,1.1,4,73.68421053,2905.858946,-4478.365829,-526.2407628,1859.311217,-302.4343192,7646.470007,-1218,-8026,1395.883105,36.79917444,45.86516854,328.7871998,59.58,66.23907451,60.61,65.44079178,0,0.020832513,0,0.059128842
201,5,1.1,4,74.56140351,2498,-5002,-340,1934,-936,8125,-1575.5,-8226.75,1518.081164,-63.53842875,64.97331461,400.5696494,59.58,66.27,60.61,65.47,0,0.030925491,0,0.029208223
201,5,1.1,4,75.43859649,2135.066031,-5139.928854,-414.5624143,1983.982432,-1455.007531,8549.53866,-1738,-8318,1566,-155,88,472,59.58,66.31717664,60.61,65.32644531,0,0.047176644,0,-0.143554688
201,5,1.1,4,76.31578947,1742,-5194,-594,2037,-1722,8930,-1577.908228,-8031,1168,-252.8995872,142.0674157,539.8193485,59.57770405,66.37571952,60.61,65.26,-0.00229595,0.058542876,0,-0.066445312
201,5,1.1,4,77.19298246,1199.104199,-4921,-1248.437586,2133.717007,-1694.01954,9294.652302,-1300,-7744,770,-312,184,615,59.55785874,66.45809734,60.61,65.26,-0.019845308,0.082377818,0,0
201,5,1.1,4,78.07017544,668,-4648,-1798,2266,-1621,9596,-986.0917722,-7746.669604,770.4677419,-305,139.5,715.636078,59.53251781,66.53563539,60.59311505,65.31166294,-0.025340932,0.077538051,-0.016884954,0.051662935
201,5,1.1,4,78.94736842,312.0653989,-5003.778331,-1761,2462.00444,-1329.040954,9840.464286,-790,-7756,772,-298,95,823,59.52,66.57,60.55,65.4,-0.01251781,0.034364611,-0.043115046,0.088337065
201,5,1.1,4,79.8245614,-22,-5716,-1724,2641,-788,9966,-1328,-8316,794,-330,142,917,59.52,66.53280113,60.51898236,65.38818342,0,-0.037198869,-0.031017641,-0.011816585
201,5,1.1,4,80.70175439,-530.0909091,-6772.968119,-1883.80137,2722.892242,116.6223346,9956.819484,-1360.340909,-8265.703704,772.2222222,-359.988246,167.6955984,1001.471552,59.52148315,66.47304866,60.48888477,65.35887282,0.001483154,-0.05975247,-0.030097587,-0.029310594
201,5,1.1,4,81.57894737,-850,-7860,-2186,2793,1214,9930,-1377.170455,-8172.296296,731.7777778,-391.047868,186.9991373,1083.309183,59.54166138,66.40999348,60.46113585,65.32127696,0.020178223,-0.063055184,-0.027748927,-0.037595864
201,5,1.1,4,82.45614035,-578,-8492,-2536,2886,2167,9778,-1382,-8122,710,-434,214,1178,59.5684314,66.33883685,60.43716419,65.28460456,0.02677002,-0.071156629,-0.023971659,-0.036672394
201,5,1.1,4,83.33333333,1214,-9856,-2176,2951,3494,9662,-1308.880843,-8147.859531,809.5555556,-515.4603561,265.2744196,1290.472005,59.58,66.26188115,60.41839125,65.25795848,0.011568604,-0.076955698,-0.018772932,-0.026646087
201,5,1.1,4,84.21052632,2892.266048,-10501.48355,-1144.580455,2881.3423,4323.751883,9450.302032,-1121.174252,-8220.839388,1058.444444,-644.2881194,342.5723838,1415.804045,59.58,66.16624576,60.40471315,65.23670926,0,-0.095635389,-0.013678099,-0.021249213
201,5,1.1,4,85.0877193,4596,-11024,-2,2736,4717,9145,-866.3565504,-8334.041467,1382,-804.6696278,437.7439083,1554.709492,59.58661382,66.09914989,60.39402364,65.21573287,0.006613819,-0.067095871,-0.010689511,-0.020976394
201,5,1.1,4,85.96491228,6580.248633,-11794.95654,741.3756783,2533.514455,4482.773379,8744.063755,-591.9040597,-8480.567664,1705.555556,-980.7912188,542.6390088,1707.901718,59.62999833,66.05922057,60.38433406,65.19758524,0.043384509,-0.039929326,-0.009689586,-0.018147635
201,5,1.1,4,86.84210526,8656.544425,-12587.70049,1352.354506,2242.830601,3888.768979,8213.028289,-345.2931022,-8653.519877,1954.444444,-1156.83923,649.1077008,1876.094097,59.65494778,66.02929046,60.37365573,65.1848223,0.024949451,-0.029930101,-0.010678326,-0.012762937
201,5,1.1,4,87.71929825,10400,-12952,1606,1885,3098,7537,-174,-8846,2054,-1317,749,2060,59.67111892,66.00182442,60.36,65.18,0.016171137,-0.027466042,-0.013655731,-0.004822299
201,5,1.1,4,88.59649123,11612,-12684,1242,1370,1728,6476,-78.23297464,-9109.535316,1971.906706,-1461.999457,856.5324642,2276.164381,59.68736435,65.98351318,60.34226967,65.18,0.016245437,-0.01831124,-0.017730326,0
201,5,1.1,4,89.47368421,11703.38341,-12034.13985,893.5605117,1010.975779,644.8946615,5264.482152,-15.26524953,-9500.557249,1760.19242,-1604.381557,982.7860189,2533.241162,59.71056658,65.98181091,60.32097781,65.18,0.023202231,-0.001702274,-0.021291867,0
201,5,1.1,4,90.35087719,11766.50633,-11007.73733,586.946509,721.8920437,-406.9935058,3948.043105,31.82935041,-10019.52391,1470.705539,-1746.059681,1114.907231,2820.107171,59.74374255,65.99874526,60.2965511,65.18,0.033175969,0.016934353,-0.024426704,0
201,5,1.1,4,91.22807018,11805.93756,-9904.064886,195.7522504,457.8204185,-1307.329004,2601.362981,79.97700026,-10666.8934,1155.294461,-1888.947207,1240.042668,3125.639232,59.78208936,66.02498351,60.26941627,65.18,0.038346807,0.026238243,-0.027134837,0
201,5,1.1,4,92.10526316,11826.24585,-9022.394962,-406.4280055,173.8325289,-1935.776335,1299.121905,146.1038751,-11443.12384,865.8075802,-2034.957516,1345.338897,3438.714173,59.82,66.05,60.24,65.18,0.03791064,0.025016494,-0.029416266,0
201,5,1.1,4,92.98245614,11832,-8662,-1346,-175,-2172,116,247.13615,-12348.67334,654.0932945,-2186.003987,1417.942486,3748.20882,59.85596923,66.07553914,60.20068702,65.18,0.035969228,0.025539144,-0.039312984,0
201,5,1.1,4,93.85964912,7102,-32768,-6528,-658,-2136,-895,400,-13384,572,-2344,1445,4043,59.89226109,66.1024553,60.17069464,65.17612699,0.036291858,0.026916152,-0.029992381,-0.003873007
201,5,1.1,4,94.73684211,2535.569918,-29873.472,-6268.624,-762.2410902,-1904.628121,-1920.553629,1136,-15276,1414,-2517,1121,4327,59.9289225,66.11888776,60.15300614,65.14022701,0.036661412,0.01643246,-0.017688494,-0.035899981
201,5,1.1,4,95.61403509,-2260.533842,-22971.136,-5650.112,-828.9972029,-1433.201636,-3020.472833,1333.877378,-16562.7943,3081.465461,-2713.127301,1136.470711,4660.190073,59.96633063,66.06305664,60.13764861,65.08566048,0.037408137,-0.055831116,-0.015357532,-0.054566529
201,5,1.1,4,96.49122807,-6571.422561,-14732.864,-4911.888,-873.3327705,-889.1610908,-4021.115222,1514,-17190,4236,-2827,1172,5034,60.00362514,65.9813963,60.11758834,65.03569602,0.037294503,-0.081660345,-0.020060265,-0.049964464
201,5,1.1,4,97.36842105,-9682.20752,-7830.528,-4293.376,-910.3122253,-439.9470303,-4748.838407,2176.601923,-17172.88055,3567.506488,-2739.498512,1242.771124,5503.251617,60.03897161,66.07999186,60.08871464,64.98572114,0.035346468,0.098595563,-0.028873699,-0.049974881
201,5,1.1,4,98.24561404,-10878,-4936,-4034,-955,-253,-5030,2696,-17124,2650,-2573,1360,5916,60.07665785,66.12,60.05323719,64.93015515,0.037686242,0.040008142,-0.035477451,-0.05556599
201,5,1.1,4,99.12280702,-9927.310484,-5071.993634,-4114.296296,-1013.752369,-293.962963,-5015.994142,2348.661681,-16262.11945,2162.493512,-2324.501488,1556.87265,6190.356313,60.11659271,66.12,60.01407827,64.87902392,0.039934867,0,-0.039158924,-0.05113123
201,5,1.1,4,100,-7522.326882,-5421.757407,-4315.037037,-1078.056366,-396.3703704,-4976.025698,1626,-15432,1924,-2155,1815,6325,60.12,66.16977603,59.97416015,64.84235332,0.003407287,0.049776028,-0.039918117,-0.036670599
201,5,1.1,1,0,-4333.676613,-5897.965625,-4576,-1140.672559,-529.5,-4913.168366,301.7300972,-15687.632,2180.464,-2210.12,2137.562917,6308.710775,60.12067383,66.27663043,59.9362728,64.83,0.000673828,0.106854407,-0.037887355,-0.012353319
201,5,1.1,1,0.840336134,-1031.987097,-6413.292593,-4836.962963,-1194.361516,-662.6296296,-4830.495841,-1770.593641,-16297.216,2792.032,-2341.56,2537.198282,6259.812326,60.16608398,66.33845109,59.89119438,64.83,0.045410156,0.061820652,-0.045078422,0
201,5,1.1,1,1.680672269,1712.114248,-6880.412616,-5037.703704,-1231.883807,-765.037037,-4731.08182,-3992.182427,-17024.784,3521.968,-2498.44,2928.452188,6178.258489,60.18,66.33968132,59.84601273,64.83,0.013916016,0.001230238,-0.045181643,0
201,5,1.1,1,2.521008403,3228,-7212,-5118,-1246,-806,-4618,-5764.247476,-17634.368,4133.536,-2629.88,3225.870729,6064.003101,60.18,66.28261887,59.82085677,64.83,0,-0.057062452,-0.025155965,0
201,5,1.1,1,3.361344538,3870.75746,-7406.7685,-3724.5625,-1123.03125,-706.46875,-4428.672068,-6488,-17890,4390,-2685,3344,5917,60.18,66.19903815,59.82,64.79808467,0,-0.083580724,-0.000856769,-0.031915327
201,5,1.1,1,4.201680672,4403.117742,-7555.336833,-659,-852.5,-487.5,-4121.933335,-5628.116496,-15099.86383,3070.114325,-2489.754057,3253.135089,5119.474576,60.17960297,66.1146392,59.81960297,64.76069815,-0.00039703,-0.084398948,-0.00039703,-0.037386526
201,5,1.1,1,5.042016807,4765.919153,-7708.236749,2406.5625,-581.96875,-268.53125,-3732.977935,-3861.566326,-9477.283209,604.0064278,-2041.397003,3019.159066,3713.54405,60.14628409,66.07642936,59.78628409,64.80999593,-0.033318879,-0.038209841,-0.033318879,0.049297781
201,5,1.1,1,5.882352941,4900,-7916,3800,-459,-169,-3297,-2408,-5144,-768,-1546,2700,2689,60.10525318,66.02226781,59.74244068,64.83,-0.041030915,-0.054161552,-0.043843415,0.020004071
201,5,1.1,1,6.722689076,3912,-8270,502,-468,-307,-2710,-1497.322563,-2941.854259,-833.8582797,-1007.25575,1963.359896,2313.014347,60.06752461,65.92864661,59.70178243,64.83,-0.037728562,-0.093621201,-0.04065825,0
201,5,1.1,1,7.56302521,2566,-7804,-2354,-305,-229,-2508,-738.9946148,-1222.41111,-874.2624732,-399.9958931,891.0139471,2053.642218,60.0225,65.83456399,59.7,64.89228163,-0.045024614,-0.094082619,-0.001782427,0.062281634
201,5,1.1,1,8.403361345,2923.8125,-7839.561754,-1639.625,-156.2344513,-180.8522812,-2234.568219,-422,-372,-888,113,162,1702,60,65.74234097,59.6998428,64.97763125,-0.0225,-0.092223018,-0.0001572,0.085349612
201,5,1.1,1,9.243697479,3711,-7922.498012,-68,-9.180623357,-139.6186944,-1909.160536,-534.577609,-116.120783,-874.8792373,483.4685174,-117.0210948,1055.339678,60,65.6566108,59.69491533,65.01307125,0,-0.085730168,-0.004927468,0.035440006
201,5,1.1,2,10.08403361,4498.1875,-8017.185263,1503.625,103.2135162,-110.8257604,-1563.422586,-788.0402906,73.55930402,-845.6779661,796.3953251,-317.1375891,154.9776077,60,65.58277425,59.68484095,65.04367064,0,-0.073836557,-0.010074377,0.030599387
201,5,1.1,2,10.92436975,4856,-8088,2218,148,-100,-1229,-1055.982827,191.459739,-815.6377119,1088.87447,-475.9352889,-841.8732668,60,65.5258162,59.67201358,65.0690018,0,-0.056958047,-0.012827376,0.025331161
201,5,1.1,2,11.76470588,4040.428358,-8125.001305,1369,148,-105.5,-896.9321357,-1212,232,-800,1398,-631,-1778,60,65.46854028,59.65882712,65.08863713,0,-0.05727592,-0.013186462,0.019635327
201,5,1.1,2,12.60504202,3060,-8162,520,148,-111,-595,-1249.402089,-347.4154728,-798.0482283,1747.190511,-785.0067461,-2672.968623,60.00067383,65.39016546,59.64767548,65.10214901,0.000673828,-0.078374821,-0.011151638,0.013511886
201,5,1.1,2,13.44537815,2810.743782,-8235.777224,902.1481481,124.4406819,-97.51851852,-314.9504136,-1286,-1240,-796,2072,-924,-3459,60.04608398,65.24636422,59.64095258,65.10910985,0.045410156,-0.143801234,-0.006722901,0.006960838
201,5,1.1,2,14.28571429,2653.740964,-8323.555279,1611.851852,74.88136374,-72.48148148,-65.08631793,-1418.924974,-1809.761856,-724.6287744,2343.481908,-1077.987407,-4045.819232,60.06,65.12657635,59.64351109,65.11,0.013916016,-0.119787876,0.002558516,0.000890149
201,5,1.1,2,15.12605042,2486,-8366,1994,31,-59,43,-1638.155532,-2309.026839,-572.2255773,2592.48373,-1240.349917,-4550.698765,60.06,65.02424491,59.66473031,65.11,0,-0.102331441,0.021219214,0
201,5,1.1,2,15.96638655,2251.893152,-8356.218395,1952.168,1.442201068,-61.01229491,41.47713029,-1843.308325,-2801.778404,-420.7095915,2813.993686,-1368.787469,-4996.728915,60.06,64.94223924,59.68961327,65.11,0,-0.082005668,0.024882964,0
201,5,1.1,2,16.80672269,1975.036092,-8329.372072,1838.624,-26.35259784,-66.47927078,36.91424103,-1934,-3352,-352,3003,-1421,-5407,60.05992605,64.89747378,59.7,65.11034278,-7.39E-05,-0.044765459,0.010386729,0.000342781
201,5,1.1,2,17.64705882,1671.302387,-8289.208766,1671.296,-52.51570517,-74.54606434,29.31991202,-1887.125,-4058.555953,-492,3163.243722,-1340.375,-5803.181392,60.05228638,64.87417955,59.7,65.14661521,-0.007639674,-0.023294233,0,0.036272433
201,5,1.1,2,18.48739496,1356.565604,-8239.476216,1468.112,-77.17842933,-84.35781233,18.70272308,-1784,-4867.698113,-800,3304.316026,-1163,-6176.562055,60.03638484,64.85501353,59.7,65.22573137,-0.015901538,-0.019166016,0,0.079116153
201,5,1.1,2,19.32773109,1046.699309,-8183.922156,1247,-100.4720788,-95.05965147,5.071254009,-1680.875,-5614.491215,-1108,3429.980317,-985.625,-6504.66169,60.01834134,64.84076159,59.7,65.32358584,-0.018043502,-0.014251944,0,0.097854471
201,5,1.1,2,20.16806723,757.5770693,-8126.294323,1025.888,-122.5279619,-105.7967185,-11.56591538,-1634,-6134,-1248,3544,-905,-6765,60.00427577,64.83220957,59.7,65.41607322,-0.014065568,-0.008552017,0,0.092487386
201,5,1.1,2,21.00840336,505.0724517,-8070.340455,822.704,-143.4773872,-115.7141501,-31.20020528,-1658.607929,-6433.596643,-1244.88,3661.265183,-912.7742501,-6983.147962,60,64.83056683,59.69770405,65.47934667,-0.004275769,-0.001642745,-0.00229595,0.063273447
201,5,1.1,2,21.8487395,305.0590231,-8019.808287,655.376,-163.451663,-123.9570831,-53.82303589,-1722.783788,-6657.484083,-1237.44,3782.61333,-933.7227502,-7188.36683,60,64.84830203,59.65251781,65.5163356,0,0.017735203,-0.045186241,0.036988925
201,5,1.1,2,22.68907563,173.4103502,-7978.445557,541.832,-182.5820978,-129.6706542,-79.4258274,-1812.055682,-6845.973202,-1228.56,3890.728887,-964.2841252,-7363.711717,60,64.88444444,59.64,65.57971927,0,0.036142416,-0.01251781,0.063383675
201,5,1.1,2,23.52941176,126,-7950,500,-201,-132,-108,-1911.951717,-7039.37488,-1221.12,3968.296296,-1000.897,-7492.237736,60,64.93022873,59.64,65.70318081,0,0.045784289,0,0.123461539
201,5,1.1,2,24.3697479,163.856,-7929.031856,559.904,-217.2099635,-132.2658417,-186.3107226,-2008,-7278,-1218,3998,-1040,-7557,60,64.97688956,59.64,65.83623889,0,0.046660823,0,0.133058084
201,5,1.1,2,25.21008403,254.128,-7909.020838,702.752,-230.9834041,-132.4147905,-335.823764,-2091.096098,-7563.504152,-1242.483965,3995.86726,-1083.02081,-7582.491216,60,65.01566157,59.64,65.9209337,0,0.038772018,0,0.084694803
201,5,1.1,2,26.05042017,361.872,-7892.093892,873.248,-244.3518629,-132.5308184,-518.5814441,-2168.272076,-7871.003648,-1305.626822,3989.380662,-1134.96871,-7604.414671,60,65.03777945,59.64,65.96073314,0,0.022117873,0,0.039799447
201,5,1.1,2,26.8907563,452.144,-7880.377964,1016.096,-259.3468811,-132.6978975,-696.6260828,-2249.260787,-8201.000451,-1391.965015,3978.407641,-1197.654711,-7622.641349,59.99505394,65.03204966,59.64,66.02326609,-0.004946061,-0.005729783,0,0.062532946
201,5,1.1,2,27.73109244,490,-7876,1076,-278,-133,-832,-2343.795082,-8553.996524,-1486.034985,3962.81563,-1272.889827,-7637.042236,59.97264401,64.99258294,59.64,66.12616429,-0.022409933,-0.039466721,0,0.102898199
201,5,1.1,2,28.57142857,471.488,-7964.192,1066.865038,-301.1628456,-150.5184671,-918.8001627,-2461.607814,-8930.493831,-1572.373178,3942.472063,-1362.485072,-7647.488317,59.9484022,64.93886831,59.64,66.24816672,-0.024241807,-0.053714635,0,0.122002434
201,5,1.1,2,29.41176471,427.344,-8174.496,1037.875114,-328.8573173,-191.7182754,-986.3372924,-2612.431836,-9330.994336,-1635.516035,3917.244375,-1468.251459,-7653.850577,59.94,64.89090983,59.64,66.3669109,-0.008402198,-0.047958478,0,0.11874418
201,5,1.1,2,30.25210084,374.656,-8425.504,986.6526707,-361.8703663,-240.7588503,-1049.474341,-2806,-9756,-1660,3887,-1592,-7656,59.94,64.84032974,59.64,66.46003434,0,-0.050580094,0,0.093123436
201,5,1.1,2,31.09243697,330.512,-8635.808,910.8201518,-400.9889434,-281.7996168,-1123.074259,-3276.591013,-10296.45082,-1490.440945,3797.760046,-1879.335822,-7430.480449,59.93959181,64.83343309,59.64306051,66.51285915,-0.000408194,-0.006896646,0.003060512,0.052824809
201,5,1.1,2,31.93277311,312,-8724,808,-447,-299,-1222,-3980,-10800,-1216,3640,-2100,-7011,59.93642045,64.85761082,59.66502359,66.5562629,-0.003171359,0.024177728,0.021963074,0.043403751
201,5,1.1,2,32.77310924,482,-7728,332,-518,-259,-1392,-4800.399574,-11112.81594,-969.2901721,3411.397561,-2041.495936,-6580.717,59.93031844,64.89756616,59.70250712,66.59379498,-0.006102005,0.039955339,0.037483529,0.037532083
201,5,1.1,2,33.61344538,926,-8746,630,-487,-245,-1519,-5726.696616,-11363.21701,-730.8673083,3097.797629,-1897.436317,-6072.381863,59.92153697,64.94453377,59.74878837,66.62211267,-0.008781472,0.04696761,0.046281252,0.028317689
201,5,1.1,2,34.45378151,960,-7836,1264,-533,-275,-1559,-6508,-11610,-624,2748,-1715,-5496,59.91032721,64.98974831,59.79714461,66.63787324,-0.011209761,0.045214542,0.048356243,0.015760568
201,5,1.1,2,35.29411765,1012.532862,-7838.544266,1255.31723,-596.8118098,-305.1699645,-1631.763089,-7080.401718,-11936.14322,-710.3547826,2341.157004,-1410.601166,-4811.502293,59.89694034,65.02444444,59.84284354,66.63348565,-0.013386871,0.034696135,0.045698932,-0.004387593
201,5,1.1,2,36.13445378,1096.853163,-7847.755199,1228.856683,-673.5505359,-337.262585,-1730.785803,-7528,-12130,-868,1911,-1103,-4021,59.88162754,65.03985683,59.89346702,66.58607604,-0.015312802,0.015412388,0.050623473,-0.047409606
201,5,1.1,2,36.97478992,1242,-7866,1184,-755,-379,-1834,-7910.737946,-11850,-993.8813445,1541.629509,-913.233998,-3075.484069,59.85225167,65.04,59.95031894,66.50328131,-0.02937587,0.000143167,0.056851929,-0.082794734
201,5,1.1,2,37.81512605,1846,-8600,976,-842,-449,-1937,-8288.580126,-11150,-1105.601365,1210.291618,-735.2861841,-1958.232479,59.81240069,65.04236766,60.01433203,66.3895442,-0.039850974,0.002367658,0.064013081,-0.113737103
201,5,1.1,2,38.65546218,1664.898293,-11770.61782,1632,-887.9402869,-641.142539,-1923.5,-8632.676982,-10240,-1232.016652,887.3730254,-579.2727179,-790.9517548,59.7722907,65.09247805,60.0991305,66.12391968,-0.040109987,0.050110394,0.084798475,-0.265624524
201,5,1.1,2,39.49579832,1134,-14392,2288,-933,-786,-1910,-8914.178952,-9330,-1401.983793,543.260427,-455.3097587,304.6515818,59.74640876,65.12767861,60.13594348,65.98773767,-0.025881943,0.035200559,0.036812975,-0.136182011
201,5,1.1,2,40.33613445,-1936,-10998,1536,-1014,-627,-2192,-9104.236478,-8630,-1644.35938,148.3405197,-373.5134663,1206.871008,59.72853536,65.15503866,60.15405691,65.90106518,-0.017873405,0.027360045,0.018113429,-0.086672486
201,5,1.1,2,41.17647059,-518,-10575.22356,799.0674847,-1089.34045,-640.6169528,-2334.679327,-9174,-8350,-1988,-327,-344,1794,59.71317104,65.17440986,60.16766105,65.84519859,-0.015364322,0.019371206,0.013604143,-0.055866592
201,5,1.1,2,42.01680672,900,-10438,392,-1159,-676,-2452,-6924.64762,-20559,-4269.419513,-1185.759334,-1113,2100.913377,59.69637123,65.18,60.18354535,65.83306648,-0.016799808,0.005590138,0.0158843,-0.012132112
201,5,1.1,2,42.85714286,428,-11068,828,-1220,-791,-2591,-3496,-32768,-6774,-1811,-1882,2339,59.67733588,65.18,60.20062965,65.91715252,-0.019035345,0,0.017084304,0.084086039
201,5,1.1,2,43.69747899,-92,-11342,488,-1335,-760,-2875,-985.8140927,-29557.52,-7555.880927,-1861.990137,-1752.397459,2589.456018,59.65834564,65.18,60.21807252,66.04481481,-0.018990246,0,0.017442869,0.127662298
201,5,1.1,2,44.53781513,106,-11650,756,-1279,-708,-3112,1589.129146,-21901.76,-8190.826042,-1899.148904,-1428.192377,2834.294342,59.64148808,65.18,60.237823,66.11921724,-0.016857552,0,0.019750475,0.074402426
201,5,1.1,2,45.37815126,-420.8148148,-11929.85105,1100.610411,-1339.574349,-735.1466014,-3395.056859,3871.17943,-12764.24,-8663.430695,-1923.912603,-1006.288566,3067.804656,59.62797019,65.18,60.26123082,66.12,-0.013517894,0,0.023407825,0.000782759
201,5,1.1,2,46.21848739,-1399.185185,-12228.32742,1491.640908,-1465.482031,-787.8487583,-3711.152583,5502.686477,-5108.48,-8958.290232,-1937.717534,-583.5898367,3284.276647,59.61654123,65.18,60.28783245,66.12,-0.01142896,0,0.026601626,0
201,5,1.1,2,47.05882353,-1926,-12710,1876,-1573,-823,-4052,6126,-1898,-9060,-1942,-257,3478,59.60586741,65.18,60.31701499,66.12,-0.010673822,0,0.029182541,0
201,5,1.1,2,47.89915966,-1743,-14833.03191,2321.831557,-1632.505771,-829.8530915,-4482.462701,4107.25,-2745.92053,-7418.125,-1918.859651,7.131692378,3674.031898,59.59462011,65.18,60.34816869,66.12,-0.011247302,0,0.031153705,0
201,5,1.1,2,48.7394958,-1560,-16642,2586,-1686,-838,-4834,-334,-4615.288081,-3806,-1857.375735,268.1170599,3870.722798,59.58147071,65.18,60.38068381,66.12,-0.013149399,0,0.032515118,0
201,5,1.1,2,49.57983193,-3490,-15216,2360,-1746,-898,-4971,-4775.25,-6494.511591,-193.875,-1769.453952,467.5438975,4022.302299,59.56599988,65.23591492,60.41395059,66.12,-0.015470823,0.055914917,0.03326678,0
201,5,1.1,2,50.42016807,-2898.723491,-14281.24645,1688.248527,-1598.19281,-1194.411385,-5363.082092,-6794,-7372,1448,-1667,547,4083,59.54829196,65.36530334,60.44735928,66.12,-0.017707929,0.129388428,0.03340869,0
201,5,1.1,3,51.2605042,-1710,-13386,924,-1429,-1560,-5782,-6531.505058,-7400.585215,1434.297303,-1481.064023,478.71875,4052.346432,59.52717603,65.46283142,60.48030013,66.12,-0.021115927,0.097528076,0.03294085,0
201,5,1.1,3,52.10084034,-64,-12164,510,-1402,-1748,-5971,-5919.680156,-7415.470068,1398.292809,-1200.588864,328.5,3971.257152,59.49339295,65.45550043,60.51590322,66.07658022,-0.033783074,-0.00733099,0.035603089,-0.043419778
201,5,1.1,3,52.94117647,368.9177942,-11231.22645,189.6644678,-1375.716755,-1728.896879,-5924.090811,-5222.015175,-7428.619887,1347.64191,-924.3192726,178.28125,3856.039296,59.46040567,65.40546358,60.54820384,65.98319514,-0.03298728,-0.050036847,0.03230062,-0.093385087
201,5,1.1,3,53.78151261,692.5888806,-10361.80444,-111.1086927,-1354.326599,-1671.055568,-5790.47844,-4702,-7452,1290,-751,110,3723,59.46,65.30759703,60.56380382,65.96390826,-0.000405674,-0.09786655,0.015599978,-0.019286877
201,5,1.1,3,54.62184874,930.4709584,-9550.7916,-393.3107434,-1335.218226,-1573.67815,-5580.835679,-4371.614281,-7520.235158,1192.893365,-673.1447238,112.2157434,3512.982679,59.46139745,65.26659924,60.57750019,65.95265966,0.001397446,-0.040997788,0.013696376,-0.011248597
201,5,1.1,3,55.46218487,1106.021727,-8793.245575,-657.9329457,-1315.780334,-1435.966705,-5305.83532,-4068.07254,-7645.371769,1036.726045,-613.6397683,117.9300292,3183.731405,59.48059771,65.36071806,60.58918255,65.94565904,0.019200267,0.094118818,0.011682356,-0.007000622
201,5,1.1,3,56.30252101,1242.698885,-8084.223995,-905.9665615,-1293.401616,-1257.123314,-4976.150156,-3792.716961,-7805.507642,848.4700646,-566.7888536,125.7434402,2776.9043,59.50681025,65.50264189,60.59855456,65.94008003,0.026212539,0.141923828,0.009372015,-0.005579007
201,5,1.1,3,57.14285714,1363.960133,-7418.784496,-1138.402852,-1265.470769,-1036.350058,-4602.45298,-3546.889731,-7978.740591,655.0974464,-526.8956994,134.2565598,2334.159485,59.52,65.61,60.60531992,65.93309628,0.013189749,0.10735811,0.006765354,-0.006983752
201,5,1.1,3,57.98319328,1493.263169,-6791.984711,-1356.23308,-1229.376489,-772.8490173,-4195.416583,-3331.933037,-8143.168426,483.580214,-488.2640258,142.0699708,1897.155083,59.52,65.66371417,60.60918229,65.92188142,0,0.053714167,0.003862373,-0.011214857
201,5,1.1,3,58.82352941,1654.065693,-6198.882277,-1560.448506,-1182.50747,-465.8222736,-3765.71376,-3149.189064,-8276.888958,360.8903907,-445.1975527,147.7842566,1507.549214,59.51921862,65.69918575,60.61,65.90125865,-0.000781376,0.035471581,0.000817708,-0.020622769
201,5,1.1,3,59.66386555,1869.825403,-5634.534829,-1752.040392,-1122.252409,-114.4719075,-3324.017301,-3000,-8358,314,-392,150,1207,59.50711457,65.7285818,60.61,65.84146714,-0.012104055,0.029396048,0,-0.059791512
201,5,1.1,4,60.50420168,2164,-5094,-1932,-1046,282,-2881,-2883.491099,-8404.175162,328.8087962,-318.2209358,144.8899951,956.7026534,59.48526015,65.75104804,60.61,65.75997744,-0.021854415,0.022466241,0,-0.081489699
201,5,1.1,4,61.34453782,2654,-4630,-2082,-631,1354,-2300,-2790.857136,-8446.375319,368.9881477,-226.5227978,131.8924287,704.2505074,59.46,65.76,60.61,65.69,-0.025260154,0.008951963,0,-0.069977443
201,5,1.1,4,62.18487395,1153,-3194.310722,-605.2668823,-286.4350302,2029.216878,-1464.576871,-2711.544577,-8482.629175,428.1674993,-130.8786106,114.5059735,470.8988656,59.426477,65.68598805,60.61,65.63815946,-0.033523002,-0.074011946,0,-0.051840539
201,5,1.1,4,63.02521008,-348,-2082,1190,28,2350,-511,-2634.999891,-8510.965437,499.9762954,-45.2613989,96.22930189,277.9030315,59.38787299,65.58112587,60.61,65.59118399,-0.038604008,-0.104862188,0,-0.046975467
201,5,1.1,4,63.86554622,366,-2120,1618,327,2330,439,-2550.669543,-8529.41281,578.0439808,16.35581284,80.56108654,146.5183085,59.345862,65.48347361,60.61,65.55243932,-0.042010991,-0.097652253,0,-0.038744671
201,5,1.1,4,64.70588235,1240,-2576,1302,533,2268,1060,-2448,-8536,656,40,71,98,59.34,65.50194123,60.61,65.52241225,-0.005861999,0.018467612,0,-0.030027071
201,5,1.1,4,65.54621849,1630.894058,-2603.546144,672.9827949,747.5467911,2197.058379,1923.295994,-2312.94185,-8508.860049,756.6522456,36.83573165,65.80172861,100.8579231,59.34,65.61,60.61,65.4944468,0,0.108058774,0,-0.027965456
201,5,1.1,4,66.38655462,1897.029706,-2617.884183,-85.61971365,960.9340555,2120.964253,2897.020881,-2147.608662,-8437.860028,894.3027221,27.84699667,60.9899292,109.1182469,59.37785874,65.69821073,60.61,65.47476701,0.037858742,0.088210726,0,-0.019679788
201,5,1.1,4,67.22689076,2170,-2622,-454,1142,2045,3673,-1965.691374,-8338.629683,1049.822042,13.78990012,56.71522999,122.3108037,59.4,65.78640757,60.61,65.47044911,0.022141258,0.088196849,0,-0.0043179
201,5,1.1,4,68.06722689,2498,-2250,-440,1274,1971,4135,-1780.880926,-8226.79876,1204.080817,-4.579452899,53.12825923,139.9654253,59.4,65.87427533,60.61,65.4779568,0,0.087867758,0,0.007507693
201,5,1.1,4,68.90756303,2586.810704,-2278.552254,-533.4648802,1439.026358,1776.620743,4682.774607,-1606.868255,-8117.997008,1337.94966,-26.50495731,50.37964515,161.6119439,59.4,65.96206715,60.61,65.49341481,0,0.087791815,0,0.015458009
201,5,1.1,4,69.74789916,2641.405352,-2365.771175,-730.9297605,1622.52549,1466.29885,5271.955735,-1457.3443,-8027.854172,1432.299184,-51.23050804,48.62001599,186.7801914,59.4,66.05,60.61,65.51513158,0,0.087932852,0,0.021716769
201,5,1.1,4,70.58823529,2660,-2514,-908,1798,1129,5817,-1346,-7972,1468,-78,48,215,59.4,66.15958011,60.61,65.54141555,0,0.109580105,0,0.026283972
201,5,1.1,4,71.42857143,2422,-3212,-1018,1953,771,6273,-1264.674034,-7939.120048,1454.670347,-121.4888823,55.57230115,271.9644284,59.4,66.2,60.61,65.57057517,0,0.040419895,0,0.029159619
201,5,1.1,4,72.26890756,2258.300755,-3811.492152,-889.875,2088.91058,332.9793455,6716.061041,-1194.691095,-7909.160054,1417.531042,-188.139334,75.23690345,369.4266455,59.4,66.2,60.61,65.60091888,0,0,0,0.030343708
201,5,1.1,4,73.1092437,2131.863691,-4389.826357,-608,2215.323051,-156.6156916,7151.534536,-1133.971138,-7884.640036,1360.856563,-264.8453444,102.4153552,486.0066483,59.4,66.20463241,60.61,65.64048277,0,0.004632414,0,0.039563897
201,5,1.1,4,73.94957983,1988.494781,-4825.747384,-326.125,2337.573997,-588.6528829,7589.740763,-1080.43412,-7868.080012,1288.921389,-338.5009033,132.5292046,600.3244341,59.4,66.22395828,60.61,65.70045439,0,0.019325869,0,0.059971617
201,5,1.1,4,74.78991597,1774,-4998,-198,2461,-854,8041,-1032,-7862,1206,-396,161,691,59.4,66.25195015,60.61,65.74961762,0,0.027991868,0,0.049163229
201,5,1.1,4,75.6302521,1298,-4722,-888,2586,-956,8516,-992,-8230,1056,-434,190,753,59.40757202,66.28319317,60.60857361,65.76,0.007572016,0.03124302,-0.001426387,0.01038238
201,5,1.1,4,76.47058824,1303.16887,-4884.845828,-887.4404191,2678.147693,-840.486286,8735.998633,-1020.912,-8207.12,1033.67958,-459.6755005,199.5155392,820.5024685,59.45242798,66.32760511,60.59496017,65.76,0.044855967,0.044411938,-0.013613442,0
201,5,1.1,4,77.31092437,1319.918269,-5330.774983,-885.3850083,2768.6086,-525.3904804,8931.537532,-1089.856,-8152.56,1017.729527,-479.3747369,205.1632672,891.3346746,59.46,66.40820163,60.57295256,65.76,0.007572016,0.080596524,-0.022007609,0
201,5,1.1,4,78.1512605,1350.11238,-5995.874968,-881.2687657,2854.11573,-57.88058829,9101.114617,-1172.144,-8087.44,1007.339685,-497.636223,209.2532255,964.2156465,59.46,66.49,60.55,65.76,0,0.081798368,-0.022952562,0
201,5,1.1,4,78.99159664,1395.615385,-6816.233288,-874.5266889,2931.402089,514.8753855,9243.227806,-1241.088,-8032.88,1001.699895,-518.9984727,214.0954559,1037.864412,59.46,66.48249396,60.52610194,65.72869502,0,-0.007506038,-0.023898061,-0.031304983
201,5,1.1,4,79.83193277,1458.291466,-7727.937447,-864.5937761,2997.200688,1145.709436,9356.37502,-1270,-8010,1000,-548,222,1111,59.46,66.46185084,60.4981538,65.65449974,0,-0.020643118,-0.02794814,-0.074195276
201,5,1.1,4,80.67226891,1540.004808,-8667.074949,-850.905025,3048.244533,1787.453559,9439.054177,-1241.527697,-8014.023137,1038.919248,-592.2267983,234.3871041,1179.239798,59.46,66.43088314,60.46894874,65.56699368,0,-0.030967706,-0.029205061,-0.087506056
201,5,1.1,4,81.51260504,1642.619591,-9569.733299,-832.8954337,3081.266635,2392.939748,9489.763198,-1168.099125,-8026.485287,1143.71722,-653.8978935,251.6087137,1241.956321,59.46,66.36061967,60.44127991,65.49575636,0,-0.070263471,-0.027668824,-0.071237325
201,5,1.1,4,82.35294118,1768,-10372,-810,3093,2915,9507,-1067.696793,-8047.975558,1296.454262,-729.5013477,274.372419,1303.50129,59.46119682,66.26458042,60.41793433,65.4701781,0.001196825,-0.096039249,-0.023345586,-0.025578261
201,5,1.1,4,83.19327731,2414,-11118,-280,2953,3369,9418,-958.303207,-8079.083056,1479.190717,-815.5252232,303.3858101,1368.226423,59.54570731,66.22879778,60.39972476,65.48723998,0.084510482,-0.035782642,-0.018209568,0.017061877
201,5,1.1,4,84.03361345,3232.79627,-11294.1942,-148.2392996,2710.046036,3702.292564,9141.639251,-857.9008746,-8120.396891,1673.986928,-908.4575822,339.3564772,1440.483439,59.58,66.1471933,60.38356752,65.51712497,0.034292693,-0.081604471,-0.016157241,0.029884999
201,5,1.1,4,84.87394958,4400,-11488,-100,2395,3869,8713,-784.4723032,-8172.50617,1862.903242,-1004.786487,382.9920104,1524.624059,59.58,65.94040324,60.36603826,65.53846123,0,-0.206790068,-0.017529259,0.021336251
201,5,1.1,4,85.71428571,6748,-12778,-122,2023,3632,8170,-756,-8236,2028,-1101,435,1625,59.58965356,65.88067498,60.34430748,65.53543963,0.00965356,-0.059728253,-0.021730782,-0.003021595
201,5,1.1,4,86.55462185,7872.324974,-12713.57035,-159.8666667,1576.561949,3077.550672,7490.854462,-845.6875,-9295.652642,2202.991491,-1204.491887,589.2419206,1764.89743,59.62728608,65.8497395,60.31888213,65.51530047,0.037632524,-0.030935483,-0.025425347,-0.020139156
201,5,1.1,4,87.39495798,8730.585004,-12532.63105,-211.6,1060.627192,2213.944506,6719.95422,-1043,-11536.69124,2396.603548,-1320.076528,855.2150406,1950.69897,59.67493614,65.83285307,60.29096139,65.48323846,0.047650054,-0.016886434,-0.02792074,-0.032062016
201,5,1.1,4,88.23529412,9401.482547,-12253.70657,-264.4,572.1114615,1289.563004,5869.326747,-1240.3125,-13760.38421,2553.41383,-1440.372905,1107.08064,2161.401025,59.71457101,65.84174945,60.26170392,65.44381556,0.039634867,0.008896384,-0.029257472,-0.039422902
201,5,1.1,4,89.07563025,9963.72006,-11895.32139,-305.4666667,207.9304872,552.7876679,4950.999516,-1330,-14768,2618,-1558,1219,2376,59.75111416,65.94229763,60.23226838,65.40159374,0.036543154,0.100548182,-0.029435544,-0.042221815
201,5,1.1,4,89.91596639,10496,-11476,-322,65,252,3977,-42,-12998.72201,1470.667267,-1667.798868,967.5,2595.301543,59.78755819,66.06705485,60.20381342,65.36113499,0.036444034,0.124757214,-0.028454954,-0.040458753
201,5,1.1,4,90.75630252,11060.41804,-10386.89721,224.6666667,96.55555556,357.1851852,2770.593037,1246,-10692,36,-1785,716,2838,59.82357103,66.12,60.17748277,65.32695519,0.036012837,0.052945154,-0.026330648,-0.0341798
201,5,1.1,4,91.59663866,11633.51286,-8348.046213,1591.333333,175.4444444,620.1481481,1280.266386,-598,-9912,-362,-1929,957,3119,59.85888791,66.12,60.1524885,65.29714557,0.035316878,0,-0.024994272,-0.029809613
201,5,1.1,4,92.43697479,12165.65148,-5871.288992,3368,278,962,-294.1180979,-475.5390625,-10114.89844,-227.1640625,-2011.9054,954.6367188,3383.332817,59.89558315,66.12,60.12799295,65.26810504,0.036695238,0,-0.024495556,-0.029040538
201,5,1.1,4,93.27731092,12607.20088,-3468.467551,5144.666667,380.5555556,1303.851852,-1752.69856,-152.6875,-10649.8125,128.3125,-2088.530639,948.40625,3634.598112,59.94138001,66.12,60.10424625,65.23927379,0.045796865,0,-0.023746697,-0.02883125
201,5,1.1,4,94.11764706,12908.52805,-1651.423887,6511.333333,459.4444444,1566.814815,-2895.613146,303.7578125,-11406.07031,630.8828125,-2157.404311,939.5976562,3878.710672,59.98229188,66.12,60.08149855,65.21009204,0.040911866,0,-0.022747696,-0.02918175
201,5,1.1,4,94.95798319,13020,-932,7058,491,1672,-3523,827,-12273,1207,-2217.055012,929.5,4121.585284,60,66.12,60.06,65.18,0.017708121,0,-0.021498553,-0.030092036
201,5,1.1,4,95.79831933,12339.76676,-1623.201166,6995.99021,487.9912495,1591.568513,-3786.560678,1350.242188,-13139.92969,1783.117188,-2266.011337,919.4023437,4369.136736,60,66.16893868,60.04073008,65.14461346,0,0.048938679,-0.019269921,-0.03538654
201,5,1.1,4,96.63865546,10585.48105,-3405.772595,6814.946957,478.8347772,1384.139942,-3984.729486,1806.6875,-13896.1875,2285.6875,-2302.80188,910.59375,4627.279814,60.00226844,66.20959811,60.02365616,65.10312912,0.002268443,0.040659433,-0.017073917,-0.041484343
201,5,1.1,4,97.4789916,8186.763848,-5843.166181,6522.349421,463.3352521,1100.51312,-4137.743696,2129.539063,-14431.10156,2641.164063,-2325.955236,904.3632812,4901.929306,60.02379009,66.23139777,60.00751022,65.06035856,0.021521645,0.021799654,-0.016145944,-0.042770557
201,5,1.1,4,98.31932773,5573.236152,-8498.833819,6125.676779,441.2973429,791.4868805,-4265.84058,2252,-14634,2776,-2334,902,5199,60.05816352,66.24925252,59.99102421,65.02111338,0.034373433,0.017854757,-0.016486002,-0.039245181
201,5,1.1,4,99.15966387,3174.51895,-10936.22741,5632.40821,412.5257186,507.8600583,-4389.257411,1540.287703,-14497.4375,2471.9375,-2323.0625,1001.472767,5580.589385,60.09314894,66.26215202,59.97293012,64.99020516,0.034985423,0.012899499,-0.018094092,-0.030908216
201,5,1.1,4,100,1420.233236,-12718.79883,5050.022891,376.825048,300.4314869,-4528.23146,-200.5661253,-14197,1803,-2299,1250.677378,6028.652137,60.11650656,66.2690859,59.95195991,64.9724455,0.023357615,0.006933881,-0.020970212,-0.017759661
201,5,1.1,1,0,740,-13410,4386,334,220,-4703,-2379.136891,-13896.5625,1134.0625,-2274.9375,1575.7933,6428.88882,60.12,66.26782922,59.92541996,64.97253912,0.003493442,-0.00125668,-0.026539953,9.36E-05
201,5,1.1,1,0.840336134,5038,-7204,2970,204,697,-4927,-4404,-13760,830,-2264,1903,6667,60.12,66.25250178,59.88798901,64.98967018,0,-0.015327443,-0.037430947,0.017131061
201,5,1.1,1,1.680672269,5033.227027,-7267.370262,2680.256896,74.44033252,641.5510204,-4861.486239,-6218,-16524,2086,-2454,2257,6749,60.12,66.22705707,59.84847426,65.01580078,0,-0.025444712,-0.039514752,0.026130595
201,5,1.1,1,2.521008403,5019.450634,-7430.798834,2477.859121,-66.44511639,498.5510204,-4683.954128,-5592.336,-15537.6538,2713.058419,-2383.758464,2585.204502,6328.291277,60.12,66.19676135,59.8175081,65.04252929,0,-0.03029572,-0.030966156,0.026728516
201,5,1.1,1,3.361344538,4997.48461,-7654.262391,2338.176671,-207.2632301,303.0204082,-4422.917431,-4100.368,-13100.80141,3243.110722,-2199.555391,2924.210065,5309.993832,60.12,66.14970335,59.79212989,65.07230557,0,-0.047057999,-0.025378217,0.02977628
201,5,1.1,1,4.201680672,4968.142745,-7897.737609,2236.579539,-336.620892,89.97959184,-4106.889908,-2319.632,-9996.722111,3651.833815,-1941.173086,3225.913377,4059.850747,60.11297781,66.08758731,59.767027,65.10806561,-0.007022186,-0.062116044,-0.025102887,0.035760038
201,5,1.1,1,5.042016807,4932.238829,-8121.201166,2148.43772,-443.1249853,-105.5510204,-3764.385321,-827.664,-7008.69521,3914.904605,-1648.393854,3442.211126,2943.605109,60.07053939,66.0118956,59.7437856,65.14671254,-0.042438429,-0.075691707,-0.023241402,0.038646927
201,5,1.1,1,5.882352941,4890.586651,-8284.629738,2049.121209,-515.3823936,-248.5510204,-3423.917431,-202,-4920,4008,-1361,3525,2327,60.02077346,65.92220502,59.72399184,65.18514948,-0.049765927,-0.08969058,-0.019793762,0.038436948
201,5,1.1,1,6.722689076,4844,-8348,1914,-542,-304,-3114,-291.6875,-3541.674198,3422.0625,-1044.171089,2917.34375,2146.290797,60,65.81858415,59.70923187,65.22027959,-0.020773458,-0.103620869,-0.014759966,0.035130101
201,5,1.1,1,7.56302521,4760.200918,-8315.09621,1728.405664,-504.2769679,-290.2069971,-2804.876673,-489,-2288.900794,2133,-670.8966335,1580.5,2041.145942,60,65.67261032,59.70109185,65.24900597,0,-0.145973832,-0.008140016,0.028726386
201,5,1.1,1,8.403361345,4614.985039,-8230.239067,1509.196076,-406.9912536,-254.6355685,-2460.724278,-686.3125,-1351.176992,843.9375,-292.6738617,243.65625,1932.428115,60.00168,65.56347282,59.7,65.26979871,0.00168,-0.109137501,-0.001091853,0.020792738
201,5,1.1,1,9.243697479,4421.276543,-8114.209913,1279.030682,-273.96793,-205.9970845,-2100.956349,-776,-918,258,39,-364,1741,60.01296,65.48365543,59.7,65.28934581,0.01128,-0.079817383,0,0.019547097
201,5,1.1,2,10.08403361,4191.999611,-7987.790087,1060.56893,-129.03207,-153.0029155,-1744.986422,-651.5555556,-814.8572507,321.2592593,307.4573861,-338.5925926,1117.905196,60.03,65.41619956,59.7,65.30709677,0.01704,-0.067455878,0,0.017750968
201,5,1.1,2,10.92436975,3940.078423,-7871.760933,876.470267,3.991253644,-104.3644315,-1412.228032,-420.4444444,-746.6508476,438.7407407,550.2034404,-291.4074074,93.36308042,60.04704,65.35475982,59.7,65.32097677,0.01704,-0.061439737,0,0.01388
201,5,1.1,2,11.76470588,3678.43716,-7786.90379,749.3941413,101.2769679,-68.79300292,-1122.094713,-296,-722,502,797,-266,-843,60.05832,65.29299086,59.7,65.32891097,0.01128,-0.061768957,0,0.007934194
201,5,1.1,2,12.60504202,3420,-7754,702,139,-55,-894,-374.6654409,-800.3296199,448.7113703,1076.698995,-328.8163265,-1562.252905,60.06,65.2231027,59.7,65.33,0.00168,-0.069888159,0,0.001089032
201,5,1.1,2,13.44537815,3110.557417,-7770.84375,706.3828125,136.2792873,-56.28880208,-701.8342602,-582.9528301,-1017.738189,311.2827988,1385.140123,-490.8163265,-2256.811696,60.06,65.1418549,59.7,65.33,0,-0.0812478,0,0
201,5,1.1,2,14.28571429,2713.719572,-7815.25,717.9375,128.6896994,-59.85625,-511.4452395,-879.2987676,-1347.85527,123.3702624,1702.566879,-712.3265306,-2919.070833,60.06,65.07154308,59.7,65.33,0,-0.070311819,0,0
201,5,1.1,2,15.12605042,2269.140179,-7878.03125,734.2734375,117.0900613,-65.25390625,-330.1825412,-1222.139853,-1764.310429,-81.37026239,2009.222752,-953.6734694,-3541.424774,60.06,65.03617043,59.7,65.33,0,-0.035372659,0,0
201,5,1.1,2,15.96638655,1816.472953,-7950,753,102.3391983,-72.03333333,-165.3957685,-1569.912687,-2240.733227,-269.2827988,2285.351236,-1175.183673,-4116.267976,60.06,65.0199878,59.7,65.33,0,-0.016182627,0,0
201,5,1.1,2,16.80672269,1395.371607,-8021.96875,771.7265625,85.29593547,-79.74609375,-24.4345247,-1881.05387,-2750.75323,-406.7113703,2511.195821,-1337.183673,-4635.994899,60.06,65.0078412,59.7,65.33,0,-0.012146599,0,0
201,5,1.1,2,17.64705882,1045.489857,-8084.75,788.0625,66.81909805,-87.94375,85.35158683,-2114,-3268,-460,2667,-1400,-5093,60.06,64.99849511,59.7,65.33,0,-0.00934609,0,0
201,5,1.1,2,18.48739496,806.4814167,-8129.15625,799.6171875,47.76751117,-96.17786458,156.6129628,-2266,-3946,-232,2752,-1324,-5451,60.06,64.99071401,59.7,65.35357285,0,-0.0077811,0,0.023572848
201,5,1.1,2,19.32773109,718,-8146,804,29,-104,182,-2278.548814,-4397.749354,-265.6793003,2870.983541,-1234.24662,-5771.939181,60.06,64.98326238,59.69997408,65.40518989,0,-0.007451628,-2.59E-05,0.051617042
201,5,1.1,2,20.16806723,720.6119204,-8142.569102,802.6037045,9.728905686,-111.0332873,170.2136657,-2286.026413,-4779.553029,-352.5364431,3018.597012,-1128.979716,-6097.76038,60.06,64.9749047,59.69711777,65.46848641,0,-0.008357675,-0.002856308,0.063296523
201,5,1.1,2,21.00840336,728.7237672,-8132.836556,798.6427844,-11.37217075,-117.3506061,136.4638763,-2290.222905,-5110.857134,-471.3002915,3182.980032,-1018.88665,-6413.260836,60.05904742,64.96441537,59.69042087,65.54962639,-0.000952577,-0.010489335,-0.006696899,0.081139976
201,5,1.1,2,21.8487395,742.7496689,-8117.642581,792.4591899,-34.25251434,-123.1781413,83.1644516,-2292.9284,-5411.107776,-600.6997085,3352.272222,-914.6547835,-6703.237788,60.05232452,64.95160528,59.68114259,65.64449626,-0.006722901,-0.012810086,-0.00927828,0.094869868
201,5,1.1,2,22.68907563,763.103754,-8097.827397,784.3948708,-58.86141014,-128.742078,12.72921169,-2295.933008,-5699.751063,-719.4635569,3514.6132,-826.9714784,-6952.488473,60.04117288,64.93777114,59.67054214,65.74898246,-0.011151638,-0.013834148,-0.010600451,0.104486199
201,5,1.1,2,23.52941176,790.200151,-8074.231223,774.7917769,-85.14814319,-134.2686013,-72.42802346,-2301.026838,-5996.233102,-806.3206997,3658.142586,-766.5240966,-7145.810131,60.02798642,64.92430937,59.65987873,65.85897143,-0.013186462,-0.013461762,-0.010663411,0.10998897
201,5,1.1,2,24.3697479,824.4529882,-8047.69428,763.9918583,-113.0619985,-139.9838963,-169.8934339,-2310,-6320,-840,3771,-744,-7268,60.01515905,64.91261645,59.65041157,65.97034961,-0.012827376,-0.011692928,-0.009467162,0.111378181
201,5,1.1,2,25.21008403,866.2763942,-8019.056788,752.3370649,-142.5522612,-146.114148,-277.2531996,-2332.124232,-6657.082655,-833.640625,3866.055944,-799.0429688,-7346.769734,60.00508467,64.9040888,59.64339987,66.07900344,-0.010074377,-0.008527645,-0.007011702,0.108653831
201,5,1.1,2,26.05042017,916.0844975,-7989.158966,740.1693466,-173.5682162,-152.8855415,-392.0935006,-2374.85807,-6984.803485,-816.875,3961.420214,-944.15625,-7419.125936,60.0001572,64.90012289,59.64010284,66.18081936,-0.004927468,-0.003965913,-0.003297032,0.101815921
201,5,1.1,2,26.8907563,974.2914264,-7958.841034,727.8306534,-206.0591486,-160.5242618,-512.0005168,-2437.271821,-7309.545881,-793.171875,4053.091369,-1149.316406,-7483.808266,60.03,64.935,59.67,66.27706683,0.0298428,0.034877113,0.029897165,0.096247469
201,5,1.1,2,27.73109244,1041.31131,-7928.943212,715.6629351,-239.9743435,-169.2564941,-634.5604285,-2518.435792,-7637.693232,-766,4137.067968,-1384.5,-7539.556387,60.0595418,64.96934592,59.7,66.36710526,0.029541799,0.03434592,0.03,0.090038432
201,5,1.1,2,28.57142857,1117.558275,-7900.30572,704.0081417,-275.2630859,-179.3084234,-757.3594154,-2617.420288,-7975.628929,-738.828125,4209.348571,-1619.683594,-7585.10996,60.04550127,64.94967872,59.7,66.45698891,-0.01404053,-0.0196672,0,0.089883654
201,5,1.1,2,29.41176471,1203.446452,-7873.768777,693.2082231,-311.8746609,-190.9062348,-877.9836577,-2733.295618,-8329.736363,-715.125,4265.931738,-1824.84375,-7619.208645,60.01797864,64.91253952,59.7,66.5471499,-0.027522629,-0.0371392,0,0.090160981
201,5,1.1,2,30.25210084,1299.389969,-7850.172603,683.6051292,-349.7583534,-204.2761133,-994.0193354,-2865.132086,-8706.398923,-698.359375,4302.816028,-1969.957031,-7640.592105,59.9852927,64.87136832,59.7,66.62806329,-0.032685944,-0.0411712,0,0.080913399
201,5,1.1,2,31.09243697,1405.802953,-7830.357419,675.5408101,-388.8634485,-219.644244,-1103.052628,-3012,-9112,-692,4316,-2025,-7648,59.95576222,64.83960512,59.7,66.6902042,-0.029530476,-0.0317632,0,0.062140909
201,5,1.1,2,31.93277311,1523.099534,-7815.163444,669.3572156,-429.1392313,-237.236812,-1202.669717,-3346.868957,-9618.893882,-697.328125,4238.554441,-2018.439159,-7532.129018,59.9374106,64.83028461,59.70060351,66.72473695,-0.018351623,-0.009320509,0.000603507,0.03453275
201,5,1.1,2,32.77310924,1651.69384,-7805.430898,665.3962955,-470.5349868,-257.2800023,-1290.456781,-3974.082957,-10254.7854,-711.375,4027.642012,-1999.487831,-7213.951276,59.9265233,64.83936062,59.71940056,66.74688696,-0.0108873,0.009076005,0.018797051,0.02215001
201,5,1.1,2,33.61344538,1792,-7802,664,-513,-280,-1364,-4789.773913,-10959.08375,-731.234375,3715.399085,-1969.242808,-6737.61958,59.91818701,64.85848618,59.75739052,66.76562184,-0.00833629,0.019125565,0.037989967,0.018734872
201,5,1.1,2,34.45378151,2304,-8312,678,-566,-367,-1421,-5690.073739,-11671.19813,-754,3333.962032,-1928.800883,-6147.286735,59.91119921,64.88397219,59.80488303,66.77977265,-0.006987795,0.025486005,0.047492505,0.014150815
201,5,1.1,2,35.29411765,1878,-8104,980,-608,-571,-1479,-6571.114348,-12330.53775,-776.765625,2915.467225,-1879.258847,-5487.105549,59.9043574,64.91212951,59.8521877,66.78817049,-0.006841816,0.028157325,0.047304666,0.008397839
201,5,1.1,2,36.13445378,1609.183535,-8112.082625,904.912,-640.1947527,-563.512,-1533.14717,-7329.027652,-12876.5118,-796.625,2492.051036,-1821.713493,-4801.228827,59.89645904,64.93926904,59.89022598,66.77758977,-0.007898354,0.027139525,0.038038282,-0.010580724
201,5,1.1,2,36.97478992,1409.507065,-8138.807875,725.856,-666.0455583,-545.656,-1582.40457,-7859.945565,-13248.52948,-810.671875,2095.849837,-1757.261613,-4133.809376,59.88630164,64.96170164,59.92311269,66.63581907,-0.010157407,0.022432605,0.03288671,-0.141770698
201,5,1.1,2,37.81512605,1229.238826,-8187.891812,512.144,-691.7989876,-524.344,-1635.688385,-8060,-13386,-816,1759,-1687,-3529,59.87230365,64.97722444,59.95759406,66.52268708,-0.01399799,0.015522801,0.034481377,-0.113131991
201,5,1.1,2,38.65546218,1018.647059,-8263.0505,333.088,-723.7016112,-506.488,-1701.9148,-7675.336,-13385.23509,-707.584,1460.857457,-1535.911285,-2932.000908,59.85199249,64.99205783,59.99400454,66.42638703,-0.020311158,0.014833383,0.036410479,-0.096300046
201,5,1.1,2,39.49579832,728,-8368,258,-768,-499,-1790,-6631.248,-13382.907,-413.312,1161.054653,-1251.65487,-2273.048672,59.82635243,65.00653426,60.03151908,66.33320337,-0.025640056,0.014476439,0.037514537,-0.093183665
201,5,1.1,2,40.33613445,214,-9052,422,-857,-595,-1962,-5092.592,-13378.96566,20.352,862.1427311,-869.3427026,-1573.850645,59.79685832,65.01961023,60.06950678,66.24955446,-0.029494116,0.013075966,0.037987704,-0.08364891
201,5,1.1,2,41.17647059,-406,-10266,540,-930,-592,-2070,-3224.224,-13373.361,546.944,566.672835,-424.0867291,-856.1141808,59.76498498,65.03024219,60.10733677,66.18185867,-0.031873336,0.010631964,0.037829982,-0.067695781
201,5,1.1,2,42.01680672,-502.7683986,-10794.50728,798.3480916,-977.8824579,-618.312,-2261.392692,-1191,-13366.04297,1120,277.1961074,49.00110324,-141.5466327,59.73220726,65.03738663,60.14437813,66.1365344,-0.032777718,0.007144433,0.037041369,-0.045324277
201,5,1.1,2,42.85714286,-545.0587201,-11130.73923,1190.191603,-1014.246044,-681.056,-2529.462823,842.224,-13356.9615,1693.056,-3.736308899,514.8088473,548.1446461,59.7,65.04,60.18,66.12,-0.032207261,0.002613373,0.035621866,-0.016534398
201,5,1.1,2,43.69747899,-569.5648423,-11397.31753,1605.861069,-1047.468401,-755.944,-2839.036609,2710.592,-13346.06654,2219.648,-273.5732708,938.224556,1191.252302,59.65930355,65.02973438,60.21428286,66.12,-0.040696451,-0.010265619,0.034282863,0
201,5,1.1,2,44.53781513,-612.980643,-11716.86389,1935.687023,-1085.927172,-818.688,-3154.940263,4249.248,-13333.308,2653.312,-529.7636352,1284.136282,1766.068982,59.61362445,65.00595462,60.24607387,66.12080975,-0.045679099,-0.023779764,0.031791011,0.00080975
201,5,1.1,2,45.37815126,-712,-12212,2070,-1138,-845,-3442,5293.336,-13318.63585,2947.584,-769.7562593,1517.432079,2250.887332,59.58328683,64.97918635,60.2752913,66.14614576,-0.03033762,-0.026768271,0.029217424,0.025336005
201,5,1.1,2,46.21848739,-1442,-13224,1764,-1227,-737,-3695,5678,-13302,3056,-991,1603,2624,59.58522915,64.95550595,60.30297675,66.19777778,0.001942321,-0.023680394,0.027685449,0.051632023
201,5,1.1,2,47.05882353,-1003.09198,-12560,1340.647669,-1197.441083,-742.6701245,-4043.320736,5255.428525,-12989.36483,2714,-1213.836056,1567.891827,2935.195506,59.60863678,64.92771732,60.32965923,66.26318391,0.02340763,-0.027788632,0.02668248,0.065406127
201,5,1.1,2,47.89915966,-240,-11896,1078,-1151,-761,-4398,4141.101887,-12211.46929,1832,-1448.984319,1473.482961,3238.916661,59.63304616,64.9056681,60.35586775,66.32984222,0.024409383,-0.022049221,0.026208518,0.066658319
201,5,1.1,2,48.7394958,452,-13030,1292,-1120,-987,-4669,2565.101764,-11155.42522,626,-1679.461681,1336.146882,3520.437545,59.63505394,64.90276443,60.38213131,66.38523082,0.002007774,-0.002903674,0.026263563,0.055388597
201,5,1.1,2,49.57983193,1129.922496,-13544.33071,1392.802378,-1105.368099,-1135.401302,-4999.578165,757.5098349,-10008.34442,-688,-1888.285036,1172.257067,3765.03224,59.5884022,64.94407012,60.40897892,66.41682778,-0.04665174,0.041305696,0.026847614,0.031596961
201,5,1.1,2,50.42016807,1840.819597,-13859.81018,1451.376366,-1092.520319,-1275.485935,-5393.331352,-1051.592221,-8957.338738,-1894,-2058.471278,998.1869955,3957.974827,59.58,65.09019824,60.43704792,66.41398584,-0.008402198,0.146128118,0.028068996,-0.002841937
201,5,1.1,2,51.2605042,2546.864899,-14067.79729,1488.384237,-1081.626853,-1401.963641,-5808.696057,-2632.122726,-8189.519989,-2776,-2173.037302,830.3101469,4084.539387,59.58,65.32679124,60.46669523,66.38078462,0,0.236592997,0.029647314,-0.033201226
201,5,1.1,3,52.10084034,3210.231995,-14259.65094,1524.488263,-1072.857895,-1509.544159,-6204.108777,-3754,-7892,-3118,-2215,685,4130,59.5444043,65.28847168,60.49708955,66.32582624,-0.035595703,-0.038319558,0.030394321,-0.054958383
201,5,1.1,3,52.94117647,3793.094481,-14526.73002,1580.350716,-1066.383638,-1592.937231,-6538.00601,-4596.669431,-7894.5,-2286.75,-1999.118371,536.9399253,4043.208587,59.52,65.26,60.52731284,66.25743556,-0.024404297,-0.02847168,0.030223285,-0.068390672
201,5,1.1,3,53.78151261,4257.625951,-14960.39341,1676.633871,-1062.374275,-1646.852598,-6768.824252,-5389.928383,-7900,-458,-1511.482322,376.5754373,3825.306233,59.52,65.26,60.55644704,66.18393747,0,0,0.029134204,-0.073498092
201,5,1.1,3,54.62184874,4566,-15652,1834,-1061,-1666,-6855,-5979.223144,-7905.5,1370.75,-992.105112,243.9232306,3540.000762,59.52,65.26,60.58357412,66.11365683,0,0,0.027127081,-0.070280644
201,5,1.1,3,55.46218487,4724,-19246,3986,-1517,-1577,-6733,-6210,-7908,2202,-681,179,3251,59.52,65.26,60.60777604,66.0549185,0,0,0.024201913,-0.058738328
201,5,1.1,3,56.30252101,6412,-19970,4648,-1557,-1810,-6561,-6021.228425,-7906.714182,2089.438364,-571.4720793,164.9728996,2936.680146,59.52,65.34305664,60.63181796,66.00865409,0,0.083056641,0.024041922,-0.046264412
201,5,1.1,3,57.14285714,4302.636561,-17197.54918,5147.686396,-1710.121701,-2439.346013,-5797.212878,-5559.285275,-7903.102545,1816.555091,-490.0138101,156.3425121,2560.215398,59.52,65.4,60.65525118,65.96569567,0,0.056943359,0.02343322,-0.04295842
201,5,1.1,3,57.98319328,1958,-13298,5400,-1834,-2912,-4785,-4980.727912,-7897.533818,1480.552636,-426.4195013,150.1256747,2162.510576,59.52,65.4,60.66907872,65.92312257,0,0,0.01382754,-0.042573097
201,5,1.1,3,58.82352941,1527.318796,-11047.92543,5122.47861,-1774.011458,-2714.237319,-4056.113805,-4442.1137,-7890.376727,1178.633455,-370.4834617,143.3392249,1784.470503,59.51383857,65.39281166,60.67,65.87791558,-0.006161431,-0.007188336,0.00092128,-0.045206985
201,5,1.1,3,59.66386555,1173.734155,-8872.15493,4401.976318,-1613.480369,-2199.008751,-3387.487662,-4100,-7882,1008,-312,133,1467,59.48888889,65.3637037,60.67,65.82918791,-0.02494968,-0.02910796,0,-0.048727672
201,5,1.1,3,60.50420168,893.2958096,-6869.778121,3406.585943,-1381.558541,-1483.403508,-2761.428492,-3940.242471,-7860.727273,939.2865455,-247.6339558,112.7536,1211.306261,59.45471199,65.32383065,60.67,65.77908531,-0.0341769,-0.03987305,0,-0.050102606
201,5,1.1,4,61.34453782,682.0534898,-5139.884611,2304.400306,-1107.397783,-684.5107992,-2160.243218,-3825.940601,-7822.818182,880.4073636,-183.6527512,83.4328,983.8197155,59.42216342,65.28585732,60.67,65.72986149,-0.032548567,-0.037973329,0,-0.049223817
201,5,1.1,4,62.18487395,536.0569275,-3781.564013,1263.512223,-820.149901,80.58016244,-1566.238763,-3729.517495,-7780.545455,834.4849091,-124.2545687,52.8352,773.2800399,59.40209874,65.26244853,60.67,65.68377018,-0.020064681,-0.023408795,0,-0.046091305
201,5,1.1,4,63.02521008,451.3558537,-2893.905939,452.0145149,-548.9667043,694.7801659,-961.7220493,-3623.396259,-7746.181818,804.6416364,-73.63759075,28.7584,568.4269095,59.4,65.26,60.67,65.64306511,-0.00209874,-0.00244853,0,-0.040705071
201,5,1.1,4,63.86554622,424,-2576,38,-323,1041,-329,-3480,-7732,794,-36,19,358,59.4,65.26,60.67,65.61,0,0,0,-0.033065114
201,5,1.1,4,64.70588235,489.2156662,-2576.759163,-111.1186105,-135.7021324,1207.910796,341.0200743,-3254,-8064,1056,-13,64,144,59.4,65.28767569,60.67,65.58095176,0,0.027675687,0,-0.029048242
201,5,1.1,4,65.54621849,661.6848738,-2579.101972,-240.0360793,41.41704428,1359.682228,1035.721975,-2983.692983,-8028.432,1111.37348,5.865411765,66.16656475,70.22330951,59.4,65.35702706,60.67,65.55197969,0,0.069351373,0,-0.028972072
201,5,1.1,4,66.38655462,906.6409361,-2583.126407,-348.8207977,212.1194567,1492.472898,1740.235449,-2682.230294,-7943.616,1145.677621,24.43858824,67.18576372,12.3562232,59.4,65.44754059,60.67,65.52486108,0,0.09051353,0,-0.027118604
201,5,1.1,4,67.22689076,1189.317166,-2588.930447,-437.5411575,380.1670317,1602.441408,2439.690242,-2369.121114,-7842.384,1168.295022,40.47905882,67.72168032,-29.32251787,59.4,65.53870275,60.67,65.50137324,0,0.091162157,0,-0.023487838
201,5,1.1,4,68.06722689,1474.946878,-2596.612073,-506.2655501,549.3216961,1685.746361,3119.216101,-2063.874622,-7757.568,1188.608282,51.74635294,68.43839794,-54.53417262,59.4,65.61,60.67,65.48329347,0,0.071297253,0,-0.018079775
201,5,1.1,4,68.90756303,1728.763385,-2606.269264,-555.0623671,723.3453766,1738.546357,3763.942772,-1786,-7722,1216,56,70,-63,59.43785874,65.65485418,60.67,65.47239906,0.037858742,0.044854179,0,-0.010894413
201,5,1.1,4,69.74789916,1916,-2618,-584,906,1757,4359,-1501.689199,-7744.88,1256.725427,39.83107427,76.00544008,-42.93784554,59.46,65.71267143,60.67,65.47501037,0.022141258,0.057817254,0,0.002611319
201,5,1.1,4,70.58823529,2065.763748,-2688.251875,-601.8923464,1092.425389,1713.318554,4889.405989,-1196.370349,-7799.44,1304.586105,-1.826777182,88.08983376,9.946463373,59.46,65.80945843,60.67,65.5272585,0,0.096786996,0,0.052248125
201,5,1.1,4,71.42857143,2210.178887,-2869.371497,-616.515419,1281.660299,1590.349478,5374.900216,-918.4068991,-7864.56,1350.28407,-58.70016577,103.9715074,84.69969506,59.46182795,65.8662591,60.67,65.56237517,0.001827951,0.056800675,0,0.035116666
201,5,1.1,4,72.26890756,2319.004583,-3155.305371,-626.3807821,1483.31506,1400.205662,5852.694334,-716.1622997,-7919.12,1384.521357,-120.5157029,121.3687874,170.3686178,59.46962811,65.91515055,60.67,65.59409904,0.007800162,0.048891445,0,0.031723876
201,5,1.1,4,73.1092437,2362,-3540,-630,1707,1155,6360,-638,-7942,1398,-177,138,256,59.48137823,65.95905532,60.67,65.62396892,0.011750116,0.043904774,0,0.02986988
201,5,1.1,4,73.94957983,2286,-4576,-334,1979,591,6920,-690,-7932.222222,1351.333333,-228.9031675,153.2640025,352.7485154,59.49468439,65.99623304,60.67,65.65023938,0.013306158,0.037177718,0,0.02627046
201,5,1.1,4,74.78991597,2147.06001,-5120.561786,-358.005487,2186.92011,468.4184781,7352.200888,-820,-7907.777778,1234.666667,-283.253406,168.6168689,471.9798698,59.50715268,66.02494332,60.67,65.671165,0.012468289,0.028710276,0,0.020925616
201,5,1.1,4,75.6302521,1941.493511,-5556.135556,-422.340192,2393.909304,365.3475847,7783.639786,-989,-7876,1083,-339.194462,184.8627504,603.0573793,59.51638918,66.04344576,60.67,65.68500035,0.009236508,0.018502448,0,0.013835347
201,5,1.1,4,76.47058824,1691.455433,-5909.084555,-515.4814815,2593.68463,280.428404,8200.943165,-1158,-7844.222222,931.3333333,-395.870082,202.8057985,735.34436,59.52,66.05,60.67,65.69,0.003610816,0.006554235,0,0.004999655
201,5,1.1,4,77.31092437,1419.10071,-6205.772027,-625.9067215,2779.963135,212.3020201,8590.737499,-1288,-7819.777778,814.6666667,-452.4240125,223.2501646,858.2041282,59.52,66.05,60.66011176,65.69,0,0,-0.009888236,0
201,5,1.1,4,78.1512605,1146.584272,-6472.561215,-742.0932785,2946.461866,159.6095173,8939.649258,-1340,-7810,768,-508,247,961,59.52,66.05,60.63553529,65.69,0,0,-0.024576471,0
201,5,1.1,4,78.99159664,896.0610501,-6735.815362,-852.5185185,3086.89787,120.9919798,9234.304916,-1297.517656,-7898.069668,797.9519159,-560.9842476,281.4445399,1043.221384,59.52,66.05,60.60390294,65.69,0,0,-0.031632353,0
201,5,1.1,4,79.83193277,689.6859766,-7021.897713,-945.659808,3194.988196,95.09049156,9461.330944,-1181.033809,-8140.994606,880.0781367,-611.0448083,330.8715596,1113.512389,59.52,66.05,60.57284706,65.69,0,0,-0.031055882,0
201,5,1.1,4,80.67226891,549.6139827,-7357.171511,-1009.994513,3264.44989,80.54613692,9607.353815,-1006.993238,-8506.848717,1002.784373,-659.2482038,391.4330208,1174.968383,59.52,66.05,60.55,65.69,0,0,-0.022847058,0
201,5,1.1,4,81.51260504,498,-7768,-1034,3289,76,9659,-791.8407213,-8963.705901,1154.476334,-706.6609554,459.280885,1230.684733,59.52,66.05,60.53599805,65.68347492,0,0,-0.014001948,-0.006525084
201,5,1.1,4,82.35294118,632.6401597,-8249.216944,-957.4990696,3284.861303,322.7407407,9632.628457,-552.0210368,-9479.640061,1323.55973,-754.3495848,530.567114,1283.756806,59.52140996,66.04852184,60.52496391,65.66717468,0.001409957,-0.001478163,-0.01103414,-0.016300238
201,5,1.1,4,83.19327731,1019.070733,-8779.725,-759.1525782,3271.556169,939.5925926,9556.344396,-303.9789632,-10022.7251,1498.44027,-803.3806135,601.4436694,1337.279969,59.53503988,66.03379208,60.51475956,65.64601181,0.013629919,-0.014729754,-0.010204356,-0.02116287
201,5,1.1,4,84.03361345,1631.056862,-9361.990751,-485.6949757,3247.751035,1741.5,9434.393669,-64.15927874,-10561.03491,1667.523666,-854.820563,668.0625128,1394.349591,59.5576392,66.00795101,60.50324696,65.62489883,0.022599321,-0.025841072,-0.011512596,-0.02111298
201,5,1.1,4,84.87394958,2442.363689,-9998.480779,-183.8607119,3212.112338,2543.407407,9271.022126,150.9932382,-11062.64341,1819.215627,-909.7359549,726.5756059,1458.061037,59.58249292,65.97643798,60.48826828,65.60871351,0.024853727,-0.031513031,-0.014978684,-0.01618532
201,5,1.1,4,85.71428571,3426.756354,-10691.66167,99.61576325,3163.306514,3160.259259,9070.475619,325.0338092,-11495.62449,1941.921863,-969.1933107,773.1349104,1531.509676,59.61573841,65.90977473,60.46631626,65.59710272,0.033245491,-0.066663251,-0.021952018,-0.01161079
201,5,1.1,4,86.55462185,4558,-11444,318,3100,3407,8837,441.5176559,-11828.05205,2024.048084,-1034.259152,803.8923879,1617.790875,59.65603424,65.82210864,60.43780731,65.58716691,0.040295821,-0.087666085,-0.028508947,-0.009935809
201,5,1.1,4,87.39495798,6824,-12388,466,2789,3183,8339,484,-12028,2054,-1106,815,1720,59.69185163,65.76406697,60.40541276,65.57804142,0.035817391,-0.058041675,-0.032394549,-0.009125487
201,5,1.1,4,88.23529412,8454.585159,-12806.9755,458.5484337,2421.875944,2727.453523,7763.79407,445.7913249,-12148.57369,2023.925926,-1196.737606,811.6666667,1864.880575,59.71561236,65.7720256,60.37180394,65.5688616,0.02376073,0.00795863,-0.033608825,-0.009179823
201,5,1.1,4,89.07563025,9778.181468,-13090.59538,437.763534,2020.741326,2097.488927,7116.526125,342.9766841,-12260.28099,1948.740741,-1310.537416,803.3333333,2065.144668,59.73422899,65.81948949,60.33965216,65.55876278,0.018616637,0.047463891,-0.032151773,-0.010098817
201,5,1.1,4,89.91596639,10324,-13556,406,1616,1502,6347,193.2731544,-12357.29958,1851,-1436.081496,792.5,2302.840468,59.75119865,65.88121198,60.31162877,65.54688031,0.016969652,0.061722491,-0.028023396,-0.01188247
201,5,1.1,4,90.75630252,10234.83352,-15977.73468,-322.459489,1153.198823,942.1392401,5323.754192,14.39781258,-12433.80716,1753.259259,-1562.05191,781.6666667,2560.016165,59.76863397,65.94164994,60.29015822,65.53231602,0.017435326,0.060437962,-0.021470548,-0.014564295
201,5,1.1,4,91.59663866,9979.220563,-20795.27151,-2006.816925,622.6885435,341.041517,4042.527298,-175.9322645,-12483.9814,1678.074074,-1677.130723,773.3333333,2818.719946,59.78444701,66.02148841,60.27370795,65.51429289,0.015813039,0.079838463,-0.016450264,-0.018023126
201,5,1.1,4,92.43697479,9574.990844,-26323.14101,-4004.944617,122.0788529,-209.4258263,2643.923308,-360,-12502,1648,-1770,770,3061,59.80121667,66.09297017,60.25774431,65.49265064,0.016769655,0.071481767,-0.015963646,-0.021642249
201,5,1.1,4,93.27731092,9039.974084,-30875.87367,-5674.714872,-251.0205584,-617.3954464,1268.546212,-566,-11530,1792,-1836,963,3292,59.8224569,66.12,60.23767415,65.46724312,0.021240232,0.027029827,-0.020070158,-0.025407519
201,5,1.1,4,94.11764706,8392,-32768,-6374,-399,-791,57,-647.427706,-11723.87152,1694,-1914.499831,938.6296296,3594.53474,59.85399147,66.12,60.20986789,65.43276611,0.031534569,0,-0.027806256,-0.034477016
201,5,1.1,4,94.95798319,7047.924385,-30515.36598,-4818.6875,-400.8643619,-807.8068393,-1065.543688,-702.0471864,-12288.40971,1512,-2009.582509,893.3703704,3928.92722,59.89313829,66.12,60.17546618,65.38865305,0.039146825,0,-0.03440171,-0.04411306
201,5,1.1,4,95.79831933,4574.807866,-24962.47594,-1397,-401.5887386,-814.6019988,-2173.270393,-722,-13198,1414,-2143,869,4206,59.93267957,66.12,60.13685931,65.33908164,0.039541283,0,-0.038606879,-0.049571405
201,5,1.1,4,96.63865546,1215.787414,-17916.84793,2024.6875,-402.5187459,-823.3461589,-3124.611902,584,-16402,3076,-2410,954,4388,59.97134239,66.13120293,60.09643754,65.28822959,0.038662813,0.011202931,-0.040421762,-0.050852051
201,5,1.1,4,97.4789916,-2786,-11186,3580,-405,-846,-3778,2572,-17760,2886,-2511,835,4636,60.01264862,66.16352534,60.05659119,65.24027459,0.041306234,0.03232241,-0.039846359,-0.047954998
201,5,1.1,4,98.31932773,-9266,-4758,1920,-592,-1735,-4117,2296.242192,-16990.51852,2384.906522,-2313.962963,913.9414756,5023.407806,60.04695303,66.19340525,60.01971051,65.19939435,0.03430441,0.02987991,-0.036880671,-0.040880247
201,5,1.1,4,99.15966387,-7201.659099,-5577.306775,-2566.260274,-1038.123855,-838.733052,-4205.572095,1608.484384,-15561.48148,1722.453261,-1948.037037,1100.660729,5495.335193,60.0660808,66.19963185,59.98716925,65.16847834,0.019127767,0.0062266,-0.032541264,-0.030916007
201,5,1.1,4,100,-3478,-7144,-5936,-1363,186,-4300,718,-14792,1392,-1751,1320,5918,60.08036287,66.19563699,59.95223498,65.13905253,0.014282067,-0.003994865,-0.034934268,-0.029425808
201,5,1.1,1,0,282,-9018,478,-657,348,-4771,-984.1839031,-14991.1288,1550.405596,-1813.103427,1586.903386,6309.454576,60.09302745,66.18760951,59.91581798,65.11027885,0.012664587,-0.00802748,-0.036417005,-0.028773675
201,5,1.1,1,0.826446281,4980.588019,-10605.45381,781.5278831,-865.1851852,231.2410207,-4915.776862,-3281.863453,-15508.47983,1944.811193,-1958.762409,1914.742309,6666.171733,60.10369545,66.17599881,59.8811673,65.08408257,0.010667993,-0.011610695,-0.034650676,-0.026196281
201,5,1.1,1,1.652892562,9721.405121,-11976.28246,937.7639415,-1251.814815,-17.96240301,-5007.166209,-4728,-16224,2454,-2127,2226,6822,60.11198773,66.1612543,59.85153202,65.06238895,0.008292286,-0.014744509,-0.02963528,-0.021693626
201,5,1.1,1,2.479338843,11884,-12560,982,-1460,-248,-5039,-5195.504707,-18119.64676,3280.245498,-2375.300311,2463.970397,6680.539179,60.1175252,66.14382538,59.8301612,65.04712324,0.005537465,-0.017428923,-0.021370817,-0.01526571
201,5,1.1,1,3.305785124,3940,-9190,-2892,-1302,-402,-4888,-5394,-19628,4286,-2544,2743,6334,60.11992873,66.12416144,59.82030392,65.0402107,0.00240353,-0.019663937,-0.009857288,-0.006912534
201,5,1.1,1,4.132231405,1106,-5710,-6014,-1228,-196,-4764,-2256,-15120,5148,-2470,3265,5433,60.09989379,66.09458254,59.82,65.06738428,-0.020034941,-0.029578905,-0.000303916,0.02717358
201,5,1.1,1,4.958677686,2343.435445,-6072.199914,-3145.447992,-891.0540467,1.053261897,-4636.666579,1728.661139,-9183.917483,5891.196565,-2024.344124,3867.248491,3581.430186,60.05612917,66.04393179,59.81985792,65.1122308,-0.043764616,-0.050650749,-0.00014208,0.044846522
201,5,1.1,1,5.785123967,4158,-6810,946,-610,109,-4432,4132,-5444,6284,-1637,4219,2286,60.01000857,65.95433677,59.80513152,65.13047488,-0.046120601,-0.089595019,-0.0147264,0.018244078
201,5,1.1,1,6.611570248,5124,-7872,2922,-650,-241,-3660,-3846,-5298,-832,-1810,3391,2640,60.00351109,65.87424679,59.77427712,65.14348269,-0.006497477,-0.080089975,-0.0308544,0.013007809
201,5,1.1,1,7.438016529,5117.138155,-7974.183959,2889.782254,-599.8518519,-228.1111111,-3190.031971,-3387.36,-4645.332277,-600.288,-1646.302185,2460.787609,2468.537762,60.02473031,65.81141918,59.73881472,65.15432961,0.021219214,-0.062827616,-0.0354624,0.010846921
201,5,1.1,1,8.26446281,5097.19765,-8043.092466,2804.05877,-474.4814815,-195.8888889,-2806.30469,-2293.68,-3404.728812,-47.744,-1236.106554,1427.452167,2014.533286,60.04961327,65.75110841,59.71026432,65.16609103,0.024882964,-0.060310766,-0.0285504,0.011761416
201,5,1.1,1,9.090909091,5065.146035,-8088.026922,2681.224174,-311.5,-154,-2482.578005,-988.32,-1997.259208,611.744,-700.759831,446.922922,1368.559929,60.06,65.68249368,59.7,65.18186291,0.010386729,-0.068614729,-0.01026432,0.01577188
201,5,1.1,2,9.917355372,5021.950857,-8118.288729,2537.673095,-148.5185185,-112.1111111,-2192.611763,105.36,-843.9930692,1164.288,-161.6087387,-324.8708823,621.1910476,60.06,65.60248524,59.7,65.20516035,0,-0.080008442,0,0.023297438
201,5,1.1,2,10.74380165,4968.579662,-8143.179288,2389.800161,-23.14814815,-79.88888889,-1910.165812,564,-366,1396,260,-732,-137,60.06,65.51442242,59.7,65.23219246,0,-0.088062818,0,0.027032114
201,5,1.1,2,11.57024793,4906,-8172,2254,27,-67,-1609,-233.336989,-1070.259524,808.6984127,546.2653734,-851.0159873,-1065.396014,60.06,65.41964382,59.7,65.25616893,0,-0.094778603,0,0.02397647
201,5,1.1,2,12.39669421,4780.523563,-8207.207204,2110.336847,19.24196587,-69.08,-1288.015337,-1154,-1858,-84,813,-949,-2068,60.050625,65.31131477,59.7,65.27500848,-0.009375,-0.108329047,0,0.018839545
201,5,1.1,2,13.2231405,4545.884344,-8242.158104,1944.24922,-1.154102389,-74.04,-969.0529616,-1359.663011,-1993.740476,-696.6250631,1106.150245,-1113.000506,-2959.900725,60.0244043,65.18783667,59.7,65.29401434,-0.026220703,-0.123478103,0,0.01900586
201,5,1.1,2,14.04958678,4214.183345,-8272.505403,1780.193168,-29.87115358,-79.96,-660.2829183,-1442,-2046,-1124,1394,-1278,-3691,60.00257813,65.07564342,59.7,65.31107068,-0.021826172,-0.112193247,0,0.017056343
201,5,1.1,2,14.87603306,3797.521563,-8293.901801,1642.624745,-62.59213652,-84.92,-369.87525,-1406,-2022,-1292,1654,-1393,-4140,60,64.99014246,59.7,65.32379676,-0.002578125,-0.085500965,0,0.012726076
201,5,1.1,2,15.70247934,3308,-8302,1556,-95,-87,-106,-1802,-2092,-1226,2024,-1554,-4695,60,64.90838664,59.7,65.32981182,0,-0.081755819,0,0.00601506
201,5,1.1,2,16.52892562,2434,-7930,1518,-132,-60,117,-2113.991051,-2346.99159,-962.6947654,2230.032678,-1529.048353,-5181.830431,60,64.84789471,59.7,65.33,0,-0.060491931,0,0.000188184
201,5,1.1,2,17.3553719,1661.679136,-7950.593558,960.8097655,-117.283871,-50.68950178,160.7391775,-2375.995526,-2833.888318,-571.7845645,2384.052728,-1461.43004,-5633.675704,60,64.83181235,59.7,65.33,0,-0.016082354,0,0
201,5,1.1,2,18.18181818,1156,-7988,436,-92,-47,176,-2486,-3460,-360,2541,-1362,-6066,60,64.87500083,59.7,65.33,0,0.043188475,0,0
201,5,1.1,2,19.00826446,958.7264746,-8033.164494,469.3827715,-65.89254032,-58.20945946,165.634641,-2362,-4448,-348,2721,-1123,-6475,60,64.92368728,59.7,65.33,0,0.048686448,0,0
201,5,1.1,2,19.83471074,808.034644,-8088.812883,555.1873905,-35.93225806,-83.89189189,138.8590426,-2424,-5252,-418,2834,-933,-6715,60,64.97910175,59.7,65.33,0,0.055414469,0,0
201,5,1.1,2,20.66115702,711.8254915,-8136.054831,671.8983144,-11.25584677,-112.1283784,102.1539229,-2384.3125,-5415.549949,-435.776065,2978.810662,-731.3384366,-6974.344941,60,65.02543635,59.7,65.39385915,0,0.046334601,0,0.063859149
201,5,1.1,2,21.48760331,678,-8156,798,-1,-131,62,-2297,-5506.472791,-443.7255546,3145.928529,-519.0230548,-7245.970938,60.00028032,65.04,59.69770405,65.47992811,0.00028032,0.014563654,-0.00229595,0.086068962
201,5,1.1,2,22.31404959,699.875,-8124.4375,989.4141856,-21.37731987,-138.3008979,10.94590485,-2209.6875,-5573.159237,-452.3122669,3322.832132,-351.1961455,-7503.111465,60.00870912,65.04,59.65251781,65.51550412,0.0084288,0,-0.045186241,0.035576008
201,5,1.1,2,23.14049587,748,-8055,1249.812609,-69.08951965,-142.502845,-56.25950197,-2170,-5664,-472,3497,-283,-7719,60.02462592,65.04,59.64371483,65.59155048,0.0159168,0,-0.008802976,0.07604636
201,5,1.1,2,23.96694215,796.125,-7985.5625,1479.304729,-124.0069596,-147.7033695,-129.8351578,-2189.039711,-5781.533779,-773.181544,3668.253079,-338.5701164,-7883.865951,60.04227072,65.04,59.66592036,65.77865036,0.0176448,0,0.022205526,0.18709988
201,5,1.1,2,24.79338843,818,-7954,1578,-166,-158,-200,-2242,-5936,-1060,3839,-440,-8028,60.05588352,65.04,59.69113115,65.99427522,0.0136128,0,0.025210786,0.215624861
201,5,1.1,2,25.61983471,660,-8100,1448,-190,-212,-265,-2474,-6226,-856,4004,-546,-8166,60.05979964,65.03967296,59.7,66.14103115,0.003916115,-0.00032704,0.008868854,0.146755932
201,5,1.1,2,26.44628099,351.098348,-7405,763.7439024,-307.1698113,-288.8684957,-350.1428488,-2617.774873,-6668.796414,-834.1850827,4082.912545,-779.5448545,-8180.695274,60.05356961,65.02983936,59.7,66.23531775,-0.006230029,-0.0098336,0,0.094286596
201,5,1.1,2,27.27272727,138,-6710,180,-406,-337,-463,-2720.753455,-7238.334492,-823.0019676,4148.941613,-1134.682961,-8190.992184,60.04101759,65.01126976,59.7,66.31446121,-0.012552013,-0.0185696,0,0.079143463
201,5,1.1,2,28.09917355,299.7930629,-6997.240306,224.8201958,-403.6666667,-297.5925926,-663.7523902,-2814.844601,-7875.074363,-816.5263112,4199.414408,-1511.748641,-8197.541456,60.02540499,64.99068416,59.7,66.38251447,-0.015612602,-0.0205856,0,0.068053263
201,5,1.1,2,28.92561983,629.1416814,-7558.258389,325.6403916,-399.3333333,-224.4074074,-919.079971,-2931.957164,-8519.476156,-808.8337699,4231.658136,-1811.076214,-8200.993819,60.0099932,64.97480256,59.7,66.44353047,-0.015411795,-0.0158816,0,0.061015994
201,5,1.1,2,29.75206612,892,-7942,432,-397,-185,-1105,-3104,-9112,-794,4243,-1933,-8202,59.9979763,64.97,59.7,66.50142456,-0.0120169,-0.00480256,0,0.057894088
201,5,1.1,2,30.5785124,1042.313345,-8062.511711,542.9183697,-418.8764999,-207.7407407,-1199.780996,-3501.969111,-9713.877661,-750.8876103,4181.789616,-1922.229592,-8103.877386,59.98932791,64.97,59.7,66.55301587,-0.008648391,0,0,0.051591316
201,5,1.1,2,31.40495868,1184.383304,-8145.301531,677.9044021,-475.7825773,-264.5925926,-1270.89207,-4209.269188,-10386.3743,-672.4935631,4014.44838,-1890.608844,-7831.428021,59.98226232,64.97,59.70081334,66.59416715,-0.007065586,0,0.000813343,0.041151279
201,5,1.1,2,32.23140496,1309.698413,-8206.507365,817.2318393,-554.6330992,-338.5,-1328.151363,-5126.422115,-11070.00015,-574.0950451,3765.411166,-1839.17347,-7417.529621,59.97559671,64.97,59.70586564,66.63523805,-0.006665604,0,0.005052301,0.041070902
201,5,1.1,2,33.05785124,1409.747208,-8262.267118,941.1744233,-642.3429324,-412.4074074,-1381.377021,-6153.949775,-11705.26542,-470.969243,3459.112847,-1768.959184,-6895.059903,59.96814827,64.97,59.71570515,66.67296922,-0.007448445,0,0.009839508,0.037731166
201,5,1.1,2,33.88429752,1476.018225,-8328.718694,1030.005896,-725.8269437,-469.2592593,-1440.387185,-7192.374054,-12232.68033,-378.3933436,3119.988297,-1681.001701,-6296.896583,59.95873416,64.97,59.73052375,66.70236434,-0.009414109,0,0.014818598,0.029395124
201,5,1.1,2,34.7107438,1500,-8422,1064,-792,-492,-1515,-8142.216834,-12592.75512,-311.6445337,2772.47239,-1576.336735,-5655.917377,59.94617157,64.97,59.75051332,66.71842712,-0.012562595,0,0.019989569,0.016062776
201,5,1.1,2,35.53719008,1356.734118,-8549.240215,978.72,-839.5955339,-487.944,-1604.125621,-8904,-12726,-286,2441,-1456,-5005,59.92278564,64.97,59.80727726,66.66719504,-0.023385929,0,0.05676394,-0.051232078
201,5,1.1,2,36.36363636,1001.402353,-8705.23008,775.36,-879.9995604,-478.272,-1702.072638,-9592.834118,-12233.8125,-359.5102925,2117.263431,-1088.315848,-4181.364173,59.88312044,64.97,59.9316242,66.50064798,-0.039665193,0,0.124346941,-0.166547057
201,5,1.1,2,37.19008264,545.7035294,-8887.599837,532.64,-919.10582,-466.728,-1811.756844,-10283.29699,-11151,-577.8607801,1763.674823,-445.5863094,-3126.14835,59.85592753,64.97598752,60.00205681,66.41353313,-0.027192915,0.00598752,0.070432614,-0.087114853
201,5,1.1,2,38.01652893,101.3364706,-9093.979729,329.28,-962.808053,-457.056,-1936.094033,-10815.11137,-10068.1875,-937.7808776,1360.748803,165.186384,-2028.108353,59.83325907,64.99264192,60.05887264,66.3445382,-0.022668457,0.0166544,0.056815829,-0.068994928
201,5,1.1,2,38.84297521,-220,-9322,244,-1017,-453,-2078,-11028,-9576,-1436,889,437,-1076,59.81212124,65.01332832,60.10677211,66.28630598,-0.021137828,0.0206864,0.047899462,-0.058232221
201,5,1.1,2,39.66942149,-400.6206271,-9555.635747,475.3830486,-1101.373291,-500.2285068,-2269.251597,-10294.81182,-21172,-4102.56961,70.83617021,401.432052,-396.5282375,59.789656,65.03132672,60.15235607,66.22976586,-0.022465242,0.0179984,0.045583963,-0.056540126
201,5,1.1,2,40.49586777,-572,-9950,918,-1186,-578,-2488,-8868,-32768,-6486,-491,288,362,59.7630053,65.03991712,60.19847646,66.17210752,-0.026650698,0.0085904,0.046120389,-0.057658341
201,5,1.1,2,41.32231405,-806,-11444,1448,-1237,-638,-2696,-7072,-15326,-1592,56,-931,1723,59.72481571,65.04,60.23181037,66.13029172,-0.038189592,8.29E-05,0.033333913,-0.041815791
201,5,1.1,2,42.14876033,-819.913292,-11632.7372,1431.36,-1265.70395,-685.8002047,-2923.29483,-10898,-12044,-2000,-147,-328,3652,59.69264045,65.04102132,60.24,66.12659475,-0.032175265,0.001021321,0.008189629,-0.003696976
201,5,1.1,2,42.97520661,-825.9127611,-11722.52664,1391.68,-1286.005492,-730.1175006,-3160.93963,-10871.83454,-11000.99829,-1895.224293,-438.9553544,-398.3703704,4567.940455,59.67177057,65.05640649,60.24,66.18879707,-0.020869881,0.015385166,0,0.06220232
201,5,1.1,2,43.80165289,-828.9555843,-11774.14748,1344.32,-1303.555059,-769.6346941,-3409.637014,-10788.22608,-10373.62607,-1580.628847,-811.3118975,-574.2962963,5356.710449,59.65492397,65.08267945,60.2547073,66.2,-0.016846598,0.026272958,0.014707301,0.011202931
201,5,1.1,2,44.62809917,-833.9989384,-11848.37889,1304.64,-1324.003084,-803.0345918,-3670.089599,-10639.5065,-9962.761734,-1055.81118,-1208.482131,-803,6000.755692,59.64,65.11,60.3,66.2,-0.014923969,0.027320555,0.045292699,0
201,5,1.1,2,45.45454545,-846,-12006,1288,-1353,-829,-3943,-10418.00771,-9569.283679,-320.3688054,-1574.878558,-1031.703704,6482.521891,59.62749355,65.14132114,60.32687403,66.2,-0.012506448,0.031321144,0.026874025,0
201,5,1.1,2,46.28099174,-1063.84324,-12987.66327,1348.54465,-1417.105854,-843.7192521,-4253.377955,-10116.06158,-8994.070302,626.1007597,-1854.91368,-1207.62963,6784.454758,59.6176761,65.18048629,60.34892438,66.2,-0.00981745,0.039165143,0.022050355,0
201,5,1.1,2,47.10743802,-1605.376052,-14580.72052,1503.755967,-1499.330705,-854.5657715,-4584.840234,-9726,-8038,1784,-1993,-1278,6889,59.60811187,65.21899086,60.36953772,66.2,-0.009564226,0.038504571,0.020613342,0
201,5,1.1,2,47.9338843,-2354,-15416,1714,-1540,-877,-4876,-7904,-5600,5090,-2025,153,5863,59.5963651,65.24833029,60.39210071,66.2,-0.011746776,0.029339428,0.022562987,0
201,5,1.1,2,48.76033058,-3810,-14812,2098,-1438,-1026,-5096,-6391.72132,-5988.651546,2180.886331,-2209.02968,346.4867078,4987.866631,59.58,65.26,60.42,66.2,-0.016365099,0.011669714,0.02789929,0
201,5,1.1,3,49.58677686,-1362,-12884,1130,-1320,-1345,-5647,-4800,-6722,-1448,-2368,410,4468,59.53883737,65.26,60.46003965,66.2,-0.041162628,0,0.04003965,0
201,5,1.1,3,50.41322314,-830,-13258,1140,-1119,-1717,-5845,-2047.470068,-7788.348454,-2730.886331,-1882.589977,226,4385.381558,59.52,65.26539642,60.5019172,66.2,-0.018837372,0.005396419,0.041877546,0
201,5,1.1,3,51.23966942,-644,-12554,622,-1149,-1823,-5997,-220,-8510,-3294,-1278,42,4315,59.52,65.31893136,60.54023245,66.2,0,0.05353494,0.038315258,0
201,5,1.1,3,52.0661157,1224,-12978,86,-1049,-1843,-6467,-458.8810098,-8432.962963,-3186.590772,-1071.959088,49.40740741,4134.998971,59.52,65.34417796,60.57214376,66.19146333,0,0.025246606,0.031911309,-0.008536673
201,5,1.1,3,52.89256198,3798,-16364,1032,-1342,-1805,-6990,-1063.797009,-8240.37037,-2895.446026,-918.7045156,67.92592593,3843.624446,59.52,65.35875663,60.60470577,66.15544569,0,0.014578666,0.032562006,-0.036017636
201,5,1.1,3,53.71900826,5530,-18960,2722,-1439,-1819,-6845,-1867.157453,-7990,-2467.190169,-800.4588018,92,3473.606856,59.52,65.36974122,60.63456119,66.10222907,0,0.010984593,0.029855425,-0.053216623
201,5,1.1,3,54.54545455,5064.496,-17079.68,2697.672454,-1515.269219,-2089.241045,-6164.720594,-2701.371796,-7739.62963,-1948.447608,-699.4444653,116.0740741,3057.676632,59.52,65.38055737,60.65748958,66.04384385,0,0.010816151,0.022928383,-0.058385217
201,5,1.1,3,55.37190083,3954.448,-12595.84,2617.097363,-1589.192871,-2701.121176,-4857.685668,-3398.849494,-7547.037037,-1385.842749,-597.8840251,134.5925926,2628.564203,59.52,65.39463071,60.66927046,65.99232043,0,0.01407334,0.011780881,-0.051523419
201,5,1.1,3,56.19834711,2629.552,-7244.16,2468.886044,-1652.381914,-3423.880784,-3370.790446,-3792,-7470,-826,-478,142,2219,59.51925527,65.41706548,60.66817205,65.95456733,-0.000744732,0.022434764,-0.001098408,-0.037753099
201,5,1.1,3,57.02479339,1519.504,-2760.32,2241.649817,-1696.447305,-4026.760261,-2150.930149,-3922,-7618,-150,-342,130,1801,59.51569587,65.45168947,60.66037189,65.92127914,-0.003559396,0.034623992,-0.007800162,-0.033288192
201,5,1.1,3,57.85123967,1054,-880,1924,-1713,-4279,-1645,-3593,-8075.562929,283.0855019,-260.8923186,122.4226475,1513.549306,59.50936554,65.4931112,60.64862177,65.89026777,-0.006330336,0.041421728,-0.011750116,-0.031011366
201,5,1.1,3,58.67768595,4166,-5114,-178,-1705,-2852,-2680,-3264,-8430,490,-198,114,1259,59.50044752,65.53549189,60.63531561,65.8600837,-0.008918015,0.04238069,-0.013306158,-0.030184069
201,5,1.1,4,59.50413223,3733.579987,-4837.835987,-868.9967127,-1406.955631,-1406.256062,-2452.514571,-3549.519231,-8374.02029,459,-129.736,90.62280702,986.661571,59.48912509,65.57299277,60.62284732,65.82927741,-0.011322435,0.037500879,-0.012468289,-0.0308063
201,5,1.1,4,60.33057851,2760.271085,-4234.116418,-1311.83169,-811.2752705,-21.94214086,-1923.695808,-3852,-8252,428,-92,73,717,59.47558149,65.59977506,60.61361082,65.79639935,-0.013543594,0.026782295,-0.009236508,-0.032878059
201,5,1.1,4,61.15702479,1732,-3640,-1468,-325,929,-1324,-3878.480769,-7962.97971,735.5605327,-95.01376147,77.5,442.2528295,59.46,65.61,60.61,65.76,-0.015581493,0.010224937,-0.003610816,-0.036399346
201,5,1.1,4,61.98347107,527.5558481,-3055.767848,-385.268185,-62.28163322,1456.040234,-629.3140289,-3888,-7740,1110,-101,82,196,59.41665853,65.56214844,60.65101563,65.71733786,-0.043341472,-0.047851563,0.041015625,-0.042662137
201,5,1.1,4,62.80991736,-230,-2710,1072,126,1770,82,-3756,-7920,1200,-109,72,16,59.4,65.54,60.6615978,65.67083138,-0.016658528,-0.022148437,0.010582177,-0.046506485
201,5,1.1,4,63.63636364,438,-3344,1636,241,1897,607,-2600,-7678,930,-92,59,-132,59.4,65.54,60.61494606,65.62207272,0,0,-0.04665174,-0.048758662
201,5,1.1,4,64.46280992,1188,-3646,1236,399,2009,1577,-2341.009956,-7816.962963,930,-72.21010873,66.25925926,-283.9318368,59.4,65.54634728,60.61,65.58356859,0,0.006347278,-0.004946061,-0.038504128
201,5,1.1,4,65.2892562,1530,-3686,504,517,2064,2255,-2207.027419,-8075.037037,930,-52.28954074,79.74074074,-425.5214739,59.4,65.57464436,60.61,65.54532265,0,0.028297084,0,-0.038245934
201,5,1.1,4,66.11570248,1758.234575,-3666.279883,241.0674448,664.4225894,2046.947202,2909.999078,-1994,-8214,930,-40,87,-488,59.4,65.62034825,60.61,65.51068644,0,0.045703892,0,-0.034636212
201,5,1.1,4,66.94214876,1974.616047,-3615.422741,38.64743223,833.4316226,1998.245775,3565.399747,-1442,-7978,576,-36,57,-449,59.4,65.67766319,60.61,65.48430706,0,0.057314939,0,-0.02637938
201,5,1.1,4,67.76859504,2170.666508,-3545.883382,-116.9239094,1016.247858,1921.581171,4212.47552,-1054.741582,-7979,783.1889081,0.64921466,55.04607084,-373.0142868,59.4,65.74079342,60.61,65.47083162,0,0.063130224,0,-0.013475441
201,5,1.1,4,68.59504132,2337.908044,-3470.116618,-239.3104517,1205.092055,1820.63884,4842.499917,-864,-7980,1070,34,53,-280,59.4,65.82445943,60.61,65.48978174,0,0.083666015,0,0.018950123
201,5,1.1,4,69.4214876,2467.862746,-3400.577259,-342.1760665,1392.184972,1699.104234,5446.746451,-988,-7930,1194,-10,-14,-194,59.40007104,65.91612246,60.61,65.54511498,7.10E-05,0.091663029,0,0.05533324
201,5,1.1,4,70.24793388,2552.052701,-3349.720117,-439.1846254,1569.747367,1560.662804,6016.48864,-762,-7884,1122,-40,61,-93,59.40743424,65.96910547,60.61,65.60314275,0.0073632,0.052983012,0,0.058027768
201,5,1.1,4,71.07438017,2582,-3330,-544,1730,1409,6543,-912.3703704,-7841.818894,1236.592593,-72.35805855,83.95885277,-7.004717151,59.42286144,66.01094726,60.61,65.67063655,0.0154272,0.041841781,0,0.067493798
201,5,1.1,4,71.90082645,2542.181738,-3429.871093,-644.6929972,1870.747759,1103.644671,7064.165479,-1191.62963,-7804.24278,1449.407407,-107.6712923,97.28562312,70.926004,59.44059264,66.04713855,60.61,65.74325453,0.0177312,0.036191293,0,0.072617984
201,5,1.1,4,72.72727273,2428.226007,-3693.720832,-727.4530491,1999.253267,582.3674017,7598.54671,-1342,-7788,1564,-151,116,140,59.45486784,66.08317009,60.61,65.81665486,0.0142752,0.036031546,0,0.073400327
201,5,1.1,4,73.55371901,2248.381386,-4067.903903,-803.1219655,2121.923885,-33.78375478,8108.432235,-1042,-8028,1491.544702,-224.4727567,165.6036858,191.1425857,59.46,66.12452348,60.61,65.88649569,0.00513216,0.041353384,0,0.069840825
201,5,1.1,4,74.38016529,2010.896457,-4498.774996,-882.5415563,2245.166973,-623.7607436,8556.110596,-742,-8268,1350,-288,202,252,59.46,66.17224379,60.61,65.94843517,0,0.047720317,0,0.061939479
201,5,1.1,4,75.20661157,1724.019802,-4932.688799,-976.5536312,2375.389891,-1066.51551,8903.870337,-896.4768616,-8268,1120.455298,-305.6659235,147.5,403.2745008,59.46,66.21682272,60.60338618,65.99904066,0,0.044578923,-0.006613819,0.050605496
201,5,1.1,4,76.03305785,1396,-5316,-1096,2519,-1241,9114,-1184,-8268,960,-325,93,585,59.46,66.256947,60.56000167,66.04044217,0,0.040124281,-0.043384509,0.041401509
201,5,1.1,4,76.85950413,754,-5662,-1288,2688,-1194,9204,-1502,-7920,1044,-407,118,716,59.46,66.31255137,60.53224897,66.07070954,0,0.055604372,-0.027752702,0.030267365
201,5,1.1,4,77.68595041,272,-6878,-1414,2881,-865,9388,-1329.462243,-7949.808679,919,-453.9628153,160.6959459,840.2773515,59.46,66.34945861,60.50870665,66.09817558,0,0.036907237,-0.023542322,0.027466042
201,5,1.1,4,78.51239669,-94,-7890,-1672,2977,-456,9519,-1010,-8042,794,-486,189,955,59.46,66.30450002,60.4930113,66.11648682,0,-0.044958587,-0.015695348,0.01831124
201,5,1.1,4,79.33884298,-358,-9248,-2190,3051,527,9466,-662,-8804,986,-506,144,1053,59.461398,66.25216445,60.49,66.0965011,0.001398002,-0.052335569,-0.0030113,-0.019985718
201,5,1.1,4,80.16528926,-416,-9916,-2128,3037,1429,9365,-706,-7764,1390,-593,224,1234,59.47494393,66.21090383,60.49,65.89540474,0.013545928,-0.041260622,0,-0.201096363
201,5,1.1,4,80.99173554,14.55033557,-10790.76563,-1777.843358,2990.393421,2977.201567,9176.02415,-900,-7692,1338,-679,242,1347,59.49750563,66.16763786,60.49,65.64589031,0.022561705,-0.043265968,0,-0.249514428
201,5,1.1,4,81.81818182,880,-11548,-1242,2902,4031,8903,-942.4013884,-7705.191938,1334.151603,-778.2864168,267.3906395,1472.668203,59.52260344,66.1137418,60.48964911,65.54018894,0.02509781,-0.053896064,-0.000350892,-0.105701366
201,5,1.1,4,82.6446281,2217.309917,-12029.58798,-671.5607009,2664.60891,4079.236396,8540.425885,-967.1045247,-7746.394894,1331.199223,-888.3367463,297.6457879,1609.809747,59.56296296,66.02872022,60.4562963,65.55814815,0.040359518,-0.085021576,-0.033352812,0.017959206
201,5,1.1,4,83.47107438,4168.171363,-12467.19647,6.514211512,2233.731622,4113.935945,8075.219488,-981.1052253,-7818.049585,1329.03207,-1003.721072,334.2257548,1751.692702,59.61066867,65.92675232,60.39906837,65.58896319,0.047705707,-0.101967898,-0.057227927,0.030815037
201,5,1.1,4,84.29752066,6250.37785,-12824.61098,657.5694743,1715.749878,4136.717297,7532.800148,-991.3993067,-7922.596725,1327.539359,-1119.009477,378.5908499,1891.585135,59.63900715,65.8419136,60.36137463,65.60925982,0.028338481,-0.084838723,-0.037693742,0.02029663
201,5,1.1,4,85.12396694,7981.722891,-13065.61699,1146.949825,1217.045423,4149.199099,6938.587205,-1004.982585,-8062.477031,1326.610301,-1228.772044,432.2013827,2022.755117,59.64,65.78597824,60.36,65.55752326,0.000992849,-0.055935358,-0.001374628,-0.051736551
201,5,1.1,4,85.95041322,8880,-13154,1340,844,4153,6318,-1028.850878,-8240.131217,1326.134111,-1327.578857,496.5176628,2138.470716,59.64021881,65.7600994,60.35953931,65.46420703,0.000218809,-0.025878845,-0.000460695,-0.093316237
201,5,1.1,4,86.7768595,9178.212894,-12792.97875,1272.844639,560.9325918,3764.471382,5659.4232,-1070,-8458,1326,-1410,573,2232,59.66236881,65.77069909,60.3225124,65.41011588,0.022150002,0.010599692,-0.037026908,-0.054091147
201,5,1.1,4,87.60330579,9425.109506,-11863.57625,1087.013916,283.2641657,2800.414146,4934.431068,-1421.387323,-10498.72133,1525.111111,-1471.509623,763.1342825,2294.647592,59.70655738,65.79415461,60.27841996,65.4,0.044188569,0.023455523,-0.044092433,-0.010115881
201,5,1.1,4,88.42975207,9612.099671,-10596.28438,805.9608739,44.02944383,1563.121219,4143.227336,-2019.360328,-14038.47177,1894.888889,-1523.851467,1029.233808,2345.611529,59.75241905,65.82388149,60.24154076,65.4,0.045861674,0.029726882,-0.0368792,0
201,5,1.1,4,89.25619835,9730.593224,-9221.595003,453.1385546,-123.7368521,354.8855277,3286.015736,-2336,-15920,2094,-1586,1164,2420,59.78812526,65.87330746,60.24,65.34854019,0.035706206,0.049425961,-0.001540764,-0.051459815
201,5,1.1,4,90.08264463,9772,-7970,52,-187,-522,2363,-756,-13370,840,-1671.845335,973,2596.305413,59.82372386,65.91,60.23953931,65.25364628,0.035598595,0.036692545,-0.000460695,-0.094893903
201,5,1.1,4,90.90909091,9074,-6802,-638,-37,-1022,1261,824,-10820,-414,-1774,782,2804,59.86406347,65.91,60.2025124,65.19188712,0.040339612,0,-0.037026908,-0.061759159
201,5,1.1,4,91.73553719,8816,-6188,-1026,82,-1177,543,541.0649567,-10893.31875,-183.8718161,-1921.99884,884.5,2927.667062,59.8911425,65.91,60.15841996,65.18,0.027079037,0,-0.044092433,-0.011887123
201,5,1.1,4,92.56198347,8788.687166,-5941.726699,-1424.384294,214.5219079,-1233.013157,-248.4497584,246,-11096,216,-2017,987,3080,59.90767738,65.91,60.12154076,65.18,0.016534876,0,-0.0368792,0
201,5,1.1,4,93.38842975,8780,-5840,-1648,291,-1279,-1045,232,-11958,578,-2012,932,3486,59.9224247,65.91,60.12,65.18,0.014747319,0,-0.001540764,0
201,5,1.1,4,94.21487603,8790,-7146,-1370,223,-1352,-1780,-34,-13226,1042,-2100,764,3699,59.94250725,65.91013867,60.11953931,65.17946252,0.020082552,0.000138674,-0.000460695,-0.000537477
201,5,1.1,4,95.04132231,1908,-32768,-8652,-698,-1183,-1191,-222,-13180,1674,-2213,784,4026,59.9781802,65.92396651,60.0825124,65.13626446,0.035672945,0.01382784,-0.037026908,-0.04319806
201,5,1.1,4,95.8677686,2933,-19022,-3031.31745,-502,-1263.8402,-2084.5,105.1875,-13222.96179,1847.056804,-2230.800835,781.03125,4338.478292,60.0214654,65.95065019,60.04219589,65.08482329,0.043285201,0.026683671,-0.040316506,-0.051441172
201,5,1.1,4,96.69421488,3958,-5276,3462,-306,-1476,-2978,825,-13346.06476,1969.383825,-2242.545187,774.5,4643.422881,60.05570389,65.97624062,60.00720466,65.04179756,0.034238497,0.025590434,-0.034991236,-0.043025733
201,5,1.1,4,97.52066116,-6992,-15734,4574,-1767,-2194,-2257,1544.8125,-13540.63536,2042.018935,-2249.016945,767.96875,4941.656029,60.0746654,65.99445894,59.96979202,65.04,0.018961503,0.018218321,-0.037412635,-0.001797558
201,5,1.1,4,98.34710744,-5967.549268,-14375.05032,2824,-1399.37037,-1302.407407,-2803.518519,1872,-13798,2066,-2251,765,5234,60.09150746,66.01329658,59.9323586,65.03759945,0.01684206,0.018837635,-0.037433416,-0.002400549
201,5,1.1,4,99.17355372,-3563.542981,-11511.21174,-426,-716.6296296,353.4074074,-3818.481481,1110,-14458,1480,-2122,900,5516,60.10550439,66.03054295,59.89084424,64.98814815,0.013996932,0.017246375,-0.041514365,-0.049451303
201,5,1.1,4,100,-784,-8962,-2176,-349,1245,-4365,-173.2648823,-14680.98121,1488.42017,-2155.97348,1132.116793,5928.271605,60.11538128,66.04358367,59.88,64.9809375,0.009876888,0.01304072,-0.010844239,-0.007210648
201,5,1.1,1,0,3199.542981,-7019.973444,-1288.814815,-408.8549544,899.1410489,-4345.711755,-1870.760652,-14811.25321,1518.618118,-2239.502516,1445.38274,6371.135802,60.1198632,66.04980434,59.88,65.03699219,0.004481927,0.006220668,0,0.056054688
201,5,1.1,1,0.892857143,7839.549268,-5283.7645,358.8148148,-568.2654644,213.7265422,-4291.090177,-3676,-15096,1578,-2345,1789,6578,60.12,66.05,59.82,65.04,0.000136797,0.000195661,-0.06,0.003007813
201,5,1.1,1,1.785714286,10068,-4532,1246,-797,-283,-4206,-5570,-17100,3364,-2502,2173,6576,60.12,66.04646438,59.76229595,65.04,0,-0.003535623,-0.05770405,0
201,5,1.1,1,2.678571429,7332,-7908,-392,-1301,-445,-3949,-6822,-20754,4582,-2774,2457,6258,60.12,65.96106733,59.80748219,65.04,0,-0.085397046,0.045186241,0
201,5,1.1,1,3.571428571,1354,-7280,-5636,-1025,-404,-4592,-4842,-20176,5436,-2891,2822,5841,60.12,65.86396387,59.80608398,65.04,0,-0.097103461,-0.001398206,0
201,5,1.1,1,4.464285714,2684.195101,-7701,-2213,-629.3220339,-131.1418078,-4430.847298,-1392,-15494,6006,-2744,3379,4794,60.12,65.76893448,59.76067383,65.04,0,-0.095029391,-0.045410156,0
201,5,1.1,1,5.357142857,4096,-8122,1210,-381,109,-4120,-1931.573835,-12294.69631,3926.740741,-2512.263622,3313.103817,3659.314905,60.06,65.68263963,59.76,65.06680297,-0.06,-0.086294853,-0.000673828,0.026802974
201,5,1.1,1,6.25,4231.801301,-8101.945211,1083.985497,-514.5185185,-4.296296296,-3713.243734,-2943.147669,-9654.646109,65.25925926,-2180.29263,3102.540967,2578.490786,60.00007395,65.60220825,59.76,65.11362549,-0.059926051,-0.080431379,0,0.046822516
201,5,1.1,1,7.142857143,4313.011762,-8052.557089,733.5265503,-762.4814815,-214.7037037,-3218.080263,-3516,-6904,-2014,-1714,2728,2097,60.00771362,65.52401973,59.76,65.14818166,0.007639674,-0.078188518,0,0.034556173
201,5,1.1,1,8.035714286,4340,-7990,200,-896,-328,-2824,-3546,-3744,-1056,-776,296,2363,60.02361516,65.44710496,59.76,65.18048529,0.015901538,-0.07691477,0,0.032303626
201,5,1.1,1,8.928571429,3204,-7869.061638,-2087.817018,-597.4138915,-207.3048433,-2601.011113,-2563.925926,-1322.508836,-208.3093635,-252.3129531,-555.941173,1972.062035,60.04165866,65.37398744,59.76,65.21173072,0.018043502,-0.073117519,0,0.031245435
201,5,1.1,1,9.821428571,2068,-7780,-4070,-184,-56,-2395,-740.0740741,689.7455822,536.2897627,138.3515455,-1110.192809,1097.346292,60.05572423,65.30719067,59.76,65.24311232,0.014065568,-0.066796765,0,0.031381599
201,5,1.1,2,10.71428571,3060,-8164.774799,-1802.491642,42.91389153,-1.195156695,-2141.758459,242,1530,856,486,-1308,186,60.06,65.24932943,59.76,65.27582444,0.004275769,-0.057861243,0,0.032712119
201,5,1.1,2,11.60714286,4052,-8592,914,155,23,-1816,-30.7003683,834.0258449,659.9814441,802.6192545,-1285,-600.7354984,60.06,65.20228283,59.76,65.31106144,0,-0.047046605,0,0.035236995
201,5,1.1,2,12.5,3900,-8644,1508,90,-136,-1271,-680,-370,254,1114,-1262,-1486,60.06,65.15917197,59.74608398,65.35543004,0,-0.043110858,-0.013916016,0.044368605
201,5,1.1,2,13.39285714,3354,-7600,282,110,-157,-1057,-2208,-1446,-360,1490,-1290,-2617,60.06,65.11552738,59.70067383,65.39944183,0,-0.043644587,-0.045410156,0.044011792
201,5,1.1,2,14.28571429,3507,-7660.547297,-80.06126097,210.1728111,-75.5,-858.7105118,-2197.914783,-1968.570086,-503.3026125,1830.530035,-1284.859951,-3371.848018,60.06,65.02247674,59.7,65.4,0,-0.093050647,-0.000673828,0.000558165
201,5,1.1,2,15.17857143,3660,-7774,-218,295,6,-657,-2170.939421,-2331.896504,-602.2134333,2157.429688,-1270.543202,-3995.289417,60.06,64.97300781,59.7,65.4,0,-0.049468923,0,0
201,5,1.1,2,16.07142857,3488.543412,-7894.138048,885,248.2947368,-38.94545455,-409.0839191,-2131.994348,-2650.774671,-659.5175375,2446.614497,-1248.704852,-4528.086107,60.06,65.0290625,59.7,65.4,0,0.056054687,0,0
201,5,1.1,2,16.96428571,3122,-8044,1988,179,-90,-195,-2086,-3040,-678,2674,-1221,-5011,60.06,65.01999593,59.7,65.4,0,-0.009066571,0,0
201,5,1.1,2,17.85714286,2338.160881,-8298.314655,1720.043757,135.2717189,-96.61818182,-50.81979321,-2006.578143,-3512.670878,-643.7777778,2832.335681,-1160.660996,-5447.500087,60.06,64.97069815,59.7,65.4,0,-0.049297781,0,0
201,5,1.1,2,18.75,1702,-8470,1260,105,-104,20,-1892.853292,-4038.232391,-580.2222222,2959.477342,-1058.379593,-5833.18253,60.06,65.00808467,59.66735599,65.42548245,0,0.037386526,-0.032644006,0.025482446
201,5,1.1,2,19.64285714,1646,-8054,858,92,-164,-9,-1788,-4666,-546,3099,-942,-6197,60.06,65.04,59.64,65.48327905,0,0.031915327,-0.027355994,0.0577966
201,5,1.1,2,20.53571429,1322.488059,-8022.464194,920.4631579,65.43844126,-137,-11.07738095,-1689.493502,-5763.827286,-588,3270.451183,-811.691518,-6527.46983,60.06,65.04,59.64,65.5785279,0,0,0,0.095248859
201,5,1.1,2,21.42857143,1026,-8002,1030,26,-110,-13,-1634,-6514,-630,3461,-657,-6873,60.06,65.04,59.64,65.64023074,0,0,0,0.061702839
201,5,1.1,2,22.32142857,999.4939024,-7951.970588,1157.536842,-39.02713848,-141.4189189,-43.57083333,-1774,-6222,-618,3676,-473,-7324,60.06,65.04,59.64,65.6843363,0,0,0,0.044105561
201,5,1.1,2,23.21428571,990,-7918,1238,-102,-185,-105,-1932,-5926,-662,3781,-421,-7545,60.06,65.04,59.65038673,65.74568902,0,0,0.010386729,0.061352712
201,5,1.1,2,24.10714286,1015,-7956.558824,673,-140.3594595,-209.0810811,-203.3798077,-2148,-5676,-940,3906,-407,-7798,60.05555556,65.04,59.67526969,65.82040728,-0.004444444,0,0.024882964,0.07471826
201,5,1.1,2,25,1040,-8010,108,-159,-221,-333,-2084,-5830.405127,-1076.264045,4025.402937,-459.5696721,-7980.72037,60.01131687,65.04,59.69648891,65.91872822,-0.044238683,0,0.021219214,0.098320938
201,5,1.1,2,25.89285714,722,-8039.441176,334.19134,-146,-201.9619816,-481.3794086,-2020,-6160,-1136,4129,-534,-8129,60,65.04,59.7,66.07846656,-0.011316872,0,0.003511093,0.159738349
201,5,1.1,2,26.78571429,404,-8054,752,-133,-171,-625,-2070,-6706,-972,4203,-569,-8248,60,65.04,59.7,66.3314603,0,0,0,0.252993734
201,5,1.1,2,27.67857143,502,-7842,1204,-160,-148,-728,-2390,-7544,-678,4217,-697,-8440,60,65.04,59.7,66.48068581,0,0,0,0.149225509
201,5,1.1,2,28.57142857,912.4575597,-7658.860465,1178.860236,-210.5813219,-175.5,-833.0246716,-2200,-8072,-616,4212,-877,-8516,60,65.04,59.7,66.61125839,0,0,0,0.13057258
201,5,1.1,2,29.46428571,1250,-7562,1118,-263,-203,-939,-2205.802839,-8510.106901,-934.7087645,4224,-1255.862558,-8514.876781,60,65.04,59.7,66.74725841,0,0,0,0.136000026
201,5,1.1,2,30.35714286,1045,-7780.144869,889.1397638,-295.4145741,-201.5198675,-1046.302359,-2226,-8844,-1428,4236,-1785,-8511,60,65.04,59.7,66.84641928,0,0,0,0.099160869
201,5,1.1,2,31.25,840,-8166,696,-323,-197,-1152,-3240,-9034,-1742,4211,-2438,-8365,60,65.04,59.7,66.93614641,0,0,0,0.089727128
201,5,1.1,2,32.14285714,1572,-8534,1010,-350,-163,-1252,-4544.092055,-9392.814415,-1739.108302,4097.742111,-2611.34886,-8075.940723,59.96502058,64.97213301,59.7,67.00104251,-0.034979424,-0.067866995,0,0.064896099
201,5,1.1,2,33.03571429,1818,-8200,1066,-376,-228,-1201,-6047.01957,-9894.36863,-1731.122137,3866.890499,-2733.28232,-7639.484293,59.94,64.88846401,59.7,67.02,-0.025020576,-0.083668997,0,0.018957489
201,5,1.1,2,33.92857143,1876,-7630,594,-404,-288,-1265,-7580.437301,-10418.73853,-1719.074905,3564.843638,-2805.32462,-7097.285717,59.94,64.83676043,59.7,67.02,0,-0.051703576,0,0
201,5,1.1,2,34.82142857,1420,-7574,512,-376,-310,-1387,-8976,-10846,-1704,3238,-2829,-6491,59.94,64.87429688,59.71293454,67.02,0,0.037536442,0.012934542,0
201,5,1.1,2,35.71428571,1718,-8418,1180,-393,-340,-1530,-10403.48006,-11205.59956,-1659.862595,2836.05537,-2462.125,-5715.18578,59.94,64.97,59.76,67.02,0,0.095703125,0.047065458,0
201,5,1.1,2,36.60714286,1670.797792,-9001.794258,1168.271605,-437.4528119,-395.7137003,-1698.663729,-11892.26005,-11556.36628,-1583.877863,2328.590189,-1655,-4734.606366,59.94,64.97,59.80583098,66.96664109,0,0,0.045830979,-0.053358911
201,5,1.1,2,37.5,1536.557703,-9484.489485,1136.839506,-516.0159945,-478.3025911,-1877.379963,-13063.41002,-11822.44985,-1511.954198,1791.829913,-847.875,-3696.22377,59.93505394,64.98154081,59.85746142,66.84070925,-0.004946061,0.01154081,0.051630444,-0.125931835
201,5,1.1,2,38.39285714,1326.329538,-9895.864453,1091.333333,-619.4151591,-579.7913135,-2067.328895,-13538,-11928,-1480,1302,-481,-2747,59.8884022,65.09039487,59.91516069,66.69342184,-0.04665174,0.108854061,0.057699265,-0.147287413
201,5,1.1,2,39.28571429,1051.163102,-10265.69793,1037.382716,-738.3759169,-692.2045082,-2269.69072,-12773.1166,-11754.40604,-1842.208505,834.1321427,-509.5322359,-1833.236704,59.88,65.11,59.98604887,66.55627819,-0.008402198,0.019605129,0.070888181,-0.13714365
201,5,1.1,2,40.17857143,722.1081981,-10623.7687,980.617284,-863.6238792,-807.5668163,-2485.64563,-10723.22908,-11289.17421,-2812.927298,328.425301,-585.9986283,-837.066542,59.88,65.11,60.06,66.42,0,0,0.073951132,-0.136278191
201,5,1.1,2,41.07142857,350.2146318,-10999.85551,926.6666667,-985.8846574,-917.9028787,-2716.37382,-7755.481481,-10615.62963,-4218.296296,-191.144166,-696.7037037,190.8019515,59.81610951,65.06583147,60.0973643,66.30708762,-0.063890486,-0.044168532,0.037364302,-0.112912384
201,5,1.1,2,41.96428571,-53.467793,-11423.73716,881.1604938,-1095.883863,-1015.237336,-2963.055482,-4237.017833,-9817.097394,-5884.455418,-700.5998995,-827.951989,1199.660243,59.74645498,65.04,60.13106094,66.27,-0.069654536,-0.025831468,0.033696634,-0.037087616
201,5,1.1,2,42.85714286,-477.8892717,-11925.19239,849.7283951,-1184.347107,-1091.59483,-3226.870811,-534.9821674,-8976.902606,-7637.544582,-1175.96554,-966.048011,2138.799799,59.7105094,65.04,60.17074852,66.27,-0.035945579,0,0.039687583,0
201,5,1.1,2,43.75,-912,-12534,838,-1242,-1139,-3509,2983.481481,-8178.37037,-9303.703704,-1593.26473,-1097.296296,2957.512087,59.66904824,65.06583147,60.20939779,66.27,-0.041461155,0.025831468,0.038649273,0
201,5,1.1,2,44.64285714,-1570.590134,-13536.13443,1070.128,-1280.788003,-1161.871454,-3837.747676,5951.229081,-7504.825789,-10709.0727,-1928.521109,-1208.001372,3605.088572,59.64,65.11,60.24,66.27,-0.029048244,0.044168532,0.030602208,0
