locomotion_mode,terrain_info,walk_speed_info,gait_phase,gait_percentage,left_accel_x,left_accel_y,left_accel_z,left_gyro_x,left_gyro_y,left_gyro_z,right_accel_x,right_accel_y,right_accel_z,right_gyro_x,right_gyro_y,right_gyro_z,left_hip_angle,left_knee_angle,right_hip_angle,right_knee_angle,left_hip_angle_vel,left_knee_angle_vel,right_hip_angle_vel,right_knee_angle_vel
202,-10,1.1,4,0,1534.953055,-8971.234222,41.33333333,484.8739403,1201.866624,1817.062924,-4016,-7160,48,-895,216,2128,60,64.92313908,59.76,66.09300659,0,-0.046860923,0,0.062463379
202,-10,1.1,4,0,1599.234901,-9027.579556,266.6666667,425.7479731,1012.616774,1260.400339,-3958,-7456,104,-887,226,2031,60,64.82425173,59.76,66.12,0,-0.098887346,0,0.026993408
202,-10,1.1,4,0,1682,-9108,388,345,826,679,-3582.939759,-7222.32108,319.4920767,-929.5,277.1648352,2032.366091,60,64.77630903,59.76,66.12,0,-0.047942699,0,0
202,-10,1.1,4,0,1820,-9282,218,194,652,34,-3254,-6936,494,-972,322,2036,60,64.73889784,59.76,66.12,0,-0.037411191,0,0
202,-10,1.1,4,0,1908.946105,-9078.076087,139.5192308,64.12627907,526.8074177,-407.0959462,-3394.2848,-6840.466228,250.8148148,-968.6879174,323.8294501,2088.830654,60,64.70228395,59.76,66.12,0,-0.036613886,0,0
202,-10,1.1,4,0,1982,-8698,74,-41,416,-744,-3695.014045,-6773.344225,-200.8148148,-959.8202793,324.7016352,2182.193105,60,64.66191113,59.7844043,66.15253906,0,-0.040372829,0.024404297,0.032539063
202,-10,1.1,4,0,2067.334459,-8165.923913,4.896656535,-106.7158966,314.7643021,-1048.663446,-3976,-6748,-444,-947,326,2232,60,64.61387291,59.81940159,66.19920212,0,-0.048038221,0.034997291,0.046663054
202,-10,1.1,4,0,2116,-7810,-106,-173,192,-1208,-4170,-7068,-274,-918,329,2159,60,64.52651299,59.77714635,66.1428618,0,-0.087359915,-0.042255241,-0.056340322
202,-10,1.1,4,0,-1639,-18548,-1043.896657,-288.3440972,-115.4947368,-794.5,-3884,-7180,-46,-900,356,2098,60,64.46042206,59.76,66.12,0,-0.066090933,-0.017146346,-0.022861795
202,-10,1.1,4,0,-5394,-29286,-1900,-417,-344,-381,-3226,-7664,282,-906,382,2082,60,64.42028984,59.76,66.12,0,-0.040132213,0,0
202,-10,1.1,4,0,-2138,-16703,-876.1444627,-549.0707965,-94.5,-572,-3206,-7714,214,-944,431,2117,59.97497942,64.35415303,59.73497942,66.12,-0.025020576,-0.066136818,-0.025020576,0
202,-10,1.1,4,0,1118,-4120,550,-625,155,-763,-2956,-7168,650,-1026,481,2184,59.94,64.27,59.7,66.12,-0.034979424,-0.084153027,-0.034979424,0
202,-10,1.1,4,0,346.3888405,-4257.443515,1259.395744,-556.7448133,-116.7541234,-518.5040395,-3376.77024,-7306,884.2906708,-1113.473082,503.5313382,2232.713929,59.94,64.18155157,59.7,66.12,0,-0.088448431,0,0
202,-10,1.1,4,0,-1346,-4684,1748,-428,-618,-121,-4126,-7444,990,-1182,530,2257,59.93876793,64.09662926,59.7,66.12,-0.001232066,-0.084922306,0,0
202,-10,1.1,4,0,-4394,-8306,2024,-280,-1158,174,-5039.22976,-7078,615,-1221.570093,655.5271882,2248.465553,59.92647121,64.00543077,59.7,66.12,-0.012296725,-0.091198489,0,0
202,-10,1.1,4,0,-4998,-9438,576,183,-1507,-119,-5624,-6712,240,-1240,827,2225,59.90483823,63.90985158,59.70886885,66.12733488,-0.02163298,-0.095579192,0.008868854,0.007334883
202,-10,1.1,4,0,-4609.681207,-9449.29591,-290.0725892,90.7037037,-1464.668577,-442.4017938,-5568.464956,-6990.879435,778,-1187,959.6520878,2018.910969,59.87865682,63.81829374,59.73407964,66.15180037,-0.026181412,-0.091557837,0.025210786,0.024465486
202,-10,1.1,4,0,-3800.473526,-9452.649985,-948.4807391,-80.7037037,-1376.337154,-800.4281284,-5422,-7606,1316,-1134,1071,1778,59.8527148,63.73915932,59.75628517,66.18404576,-0.025942021,-0.079134423,0.022205526,0.032245393
202,-10,1.1,4,0,-3104,-9464,-1210,-173,-1300,-1241,-4715.064689,-9016.444509,338,-1336.464115,1166.835897,1689.123478,59.83179999,63.68085037,59.76,66.22117361,-0.020914807,-0.058308951,0.003714834,0.037127847
202,-10,1.1,4,0,-2716,-11262,1220,250,-1257,-1893,-3598,-10320,-640,-1599,1217,1650,59.82070022,63.65176895,59.76,66.26608822,-0.01109977,-0.029081421,0,0.044914613
202,-10,1.1,1,0,-1904.280986,-11089.02682,2007.75948,225.5911543,-1227.271397,-2298.684521,-2235.470356,-10643.93533,-632.3347107,-1691.214732,1163.707871,1769.845133,59.82,63.65,59.76,66.27,-0.000700219,-0.00176895,0,0.003911777
202,-10,1.1,1,0.763358779,-908.251604,-10613.83141,2510.990851,164.5156419,-1199.1528,-2611.986287,-1374,-10872,-612,-1761,1090,1970,59.82,63.64964911,59.76,66.27089844,0,-0.000350892,0,0.000898437
202,-10,1.1,1,1.526717557,-422,-9902,2688,85,-1141,-2774,-1620.848119,-11167.51177,-335.775329,-1848.645013,1049.297118,2135.827945,59.82,63.6162963,59.76,66.33144531,0,-0.033352812,0,0.060546875
202,-10,1.1,1,2.290076336,-904,-8068,1380,-44,-642,-2817,-2157.91846,-11456.60383,150.667891,-1932.544729,1016.481892,2302.1318,59.82,63.55906837,59.76,66.35,0,-0.057227927,0,0.018554688
202,-10,1.1,1,3.053435115,2794,-11282,-185.924795,-330.3697304,-4.380174591,-3394.729205,-2680,-11644,410,-1970,1003,2454,59.82,63.52137463,59.76,66.35,0,-0.037693742,0,0
202,-10,1.1,1,3.816793893,6492,-14496,-1112,-535,381,-3936,-3178.212533,-11706.5356,-498,-1880.833333,1188.023747,2584.735528,59.82,63.53978049,59.76,66.35,0,0.01840586,0,0
202,-10,1.1,1,4.580152672,4966.734817,-11336.03347,-1080.786885,-502.7797428,137.5,-3748.790323,-3470,-11782,-1406,-1756,1376,2704,59.81940159,63.58406504,59.76,66.3503801,-0.000598412,0.044284551,0,0.000380103
202,-10,1.1,1,5.34351145,2868,-8122,-1000,-437,-106,-3459,-2622.857159,-13040.66178,-304,-1691.048846,1380.476253,2826.447212,59.77714635,63.63520409,59.76,66.38556465,-0.042255241,0.05113905,0,0.035184552
202,-10,1.1,1,6.106870229,1779.614803,-8039.966533,-638.3426484,-320.4856261,-103.5625,-3246.967319,-1736,-14234,798,-1649,1382,2923,59.76,63.65,59.76,66.4518886,-0.017146346,0.01479591,0,0.066323945
202,-10,1.1,1,6.870229008,1190,-8012,-136,-224,-97,-3099,-1690,-13382,596,-1631,1149,2972,59.76,63.65,59.76,66.55567604,0,0,0,0.103787438
202,-10,1.1,1,7.633587786,1070.65038,-8030,299.1295337,-207.1000158,-45.4375,-3047.835381,-3758,-10208,-28,-1574,1020,2950,59.76,63.685,59.76,66.60814962,0,0.035,0,0.052473579
202,-10,1.1,1,8.396946565,1026,-8048,544,-193,2,-3001,-6475.223807,-9206.071393,-493.7324541,-1543.462196,1206.31566,2915.267182,59.76,63.71759945,59.76,66.64875247,0,0.032599451,0,0.04060285
202,-10,1.1,1,9.160305344,1552,-8030,468,-162,-38,-2901,-8136,-8818,-728,-1504,1471,2853,59.76,63.66814815,59.76,66.69198463,0,-0.049451303,0,0.043232167
202,-10,1.1,1,9.923664122,1954.158273,-8064.222222,403.4934823,-93.82568837,-59.74514603,-2786.989525,-8140,-9346,-466,-1337,1597,2649,59.769375,63.65,59.76,66.73543887,0.009375,-0.018148148,0,0.043454237
202,-10,1.1,1,10.6870229,2292.101222,-8127.777778,347.7467412,-6.853715926,-75.7614619,-2669.354346,-7036,-6742,-196,-984,1667,2219,59.81742188,63.65,59.76,66.78062293,0.048046875,0,0,0.045184057
202,-10,1.1,1,11.45038168,2496,-8162,324,43,-82,-2574,-6370.804019,-4777.229303,200.9,-756.8987122,1758.046946,1897.74401,59.82,63.660347,59.76,66.83040475,0.002578125,0.010346996,0,0.04978182
202,-10,1.1,1,12.21374046,2574,-8066,702,51,-65,-2512,-5880,-3216,452,-555,1818,1598,59.82,63.68975958,59.76,66.87971752,0,0.029412583,0,0.049312775
202,-10,1.1,1,12.97709924,3027.587763,-8081,966.0999199,39.81677524,-67.95337621,-2345.486868,-5514,-2090,270,-323,1824,1262,59.82,63.71566603,59.76,66.9300885,0,0.025906447,0,0.050370976
202,-10,1.1,2,13.74045802,3420,-8096,1096,20,-76,-2086,-1774,2014,496,97,1558,233,59.80748219,63.72,59.76,66.94,-0.01251781,0.004333973,0,0.009911501
202,-10,1.1,2,14.50381679,3396,-7822,1076,1,-108,-1723,-1444,3758,-1432,243,912,-382,59.76229595,63.72,59.76,66.94,-0.045186241,0,0,0
202,-10,1.1,2,15.26717557,3474,-7829.426087,1089,-12.90074471,-100.545,-1472.014754,-2482,1912,-4458,78,584,-270,59.76,63.68808467,59.76,66.97647466,-0.00229595,-0.031915327,0,0.036474659
202,-10,1.1,2,16.03053435,3552,-7850,1120,-30,-87,-1259,-1691.777778,452.7639177,-3190.312728,367.1853929,614.3333333,-697.0942248,59.76,63.65,59.76,67.02,0,-0.038084673,0,0.043525341
202,-10,1.1,2,16.79389313,3352.218928,-8036.06096,1228,-75.45748782,-69.455,-1046.195696,-224.2222222,-817.4052492,-715.5143441,937.4818969,670.6666667,-1619.521783,59.76,63.65,59.76,67.02,0,0,0,0
202,-10,1.1,2,17.55725191,3068,-8282,1318,-130,-58,-861,566,-1890,974,1343,701,-2499,59.76,63.65,59.74608398,67.03151835,0,0,-0.013916016,0.011518349
202,-10,1.1,2,18.32061069,2932,-8398,1256,-167,-62,-724,-498,-2722,1406,1466,546,-3138,59.76,63.65,59.70067383,67.0853545,0,0,-0.045410156,0.053836152
202,-10,1.1,2,19.08396947,2688.398369,-8139,1082.343523,-185.9206546,-78.99197861,-546.0341305,-1069.610734,-2902.287957,958.0094175,1663.93477,681.8518519,-3730.748764,59.76,63.65,59.70610648,67.12932734,0,0,0.005432655,0.043972838
202,-10,1.1,2,19.84732824,2384,-7880,808,-195,-93,-402,-1489.027589,-2998.850256,-6.425609541,1925.078083,934.1481481,-4290.960148,59.76,63.65,59.723824,67.17300374,0,0,0.017717516,0.043676397
202,-10,1.1,2,20.61068702,2066,-8054,420,-196,-79,-346,-1652,-3110,-918,2219,1070,-4787,59.76,63.65,59.74760079,67.21735095,0,0,0.023776793,0.044347215
202,-10,1.1,2,21.3740458,1911.537841,-7957.555556,465.625,-179.9259259,-63.84848485,-345.3881237,-1444,-3282,-1566,2568,990,-5190,59.76,63.65,59.77860527,67.26304246,0,0,0.031004478,0.045691508
202,-10,1.1,2,22.13740458,1802.235321,-7778.444444,571.25,-150.0740741,-49.42424242,-345.0829507,-1498,-3570,-1964,2778,732,-5373,59.76,63.65,59.81821134,67.31033576,0,0,0.039606069,0.047293304
202,-10,1.1,2,22.90076336,1740,-7682,690,-134,-43,-345,-1152,-3988,-2366,3010,195,-5544,59.76,63.65,59.82,67.35665646,0,0,0.001788661,0.046320697
202,-10,1.1,2,23.66412214,1714,-7686,820,-140,-48,-387,-947.2788191,-4952.819646,-2106.718041,3157.418637,-222.2190785,-5746.929164,59.76,63.65,59.81742188,67.41449935,0,0,-0.002578125,0.057842889
202,-10,1.1,2,24.42748092,1384,-8100,962,-150,-69,-408,-852,-6016,-1642,3265,-563,-5932,59.76,63.65,59.769375,67.51157794,0,0,-0.048046875,0.097078589
202,-10,1.1,2,25.19083969,1244,-7822,1120,-174,-37,-482,-1163.781429,-6713.062084,-1075.491116,3345.672626,-849.2590211,-6056.193216,59.76,63.65,59.76,67.60415279,0,0,-0.009375,0.09257485
202,-10,1.1,2,25.95419847,1192,-8252,970,-206,-49,-569,-1654,-7238,-692,3405,-1060,-6163,59.76,63.65,59.76,67.68677253,0,0,0,0.082619746
202,-10,1.1,2,26.71755725,1354,-8162,926,-203,-45,-679,-1982,-7572,-666,3443,-1173,-6269,59.76,63.685,59.73,67.75243902,0,0.035,-0.03,0.06566649
202,-10,1.1,2,27.48091603,1210,-8154,750,-230,-89,-790,-2374,-7470,-778,3502,-1215,-6444,59.75770405,63.72,59.7,67.77824407,-0.00229595,0.035,-0.03,0.025805047
202,-10,1.1,2,28.24427481,812.2813442,-8530,975,-274.052663,-87.5,-968.9558527,-2366.5,-7591.748963,-783.0418966,3500.225265,-1128.7165,-6585.200693,59.71251781,63.72,59.7,67.73235447,-0.045186241,0,0,-0.045889604
202,-10,1.1,2,29.00763359,512,-8906,1200,-325,-86,-1160,-2344,-7842,-788,3495,-981,-6691,59.7,63.72,59.71391602,67.66392481,-0.01251781,0,0.013916016,-0.068429661
202,-10,1.1,2,29.77099237,596.3888799,-8851.019177,1140.72,-379.5423694,-91.512,-1317.172108,-2194,-8212,-874,3464,-853,-6750,59.7,63.72,59.75932617,67.56242191,0,0,0.045410156,-0.101502893
202,-10,1.1,2,30.53435115,812.2866396,-8700.497532,999.36,-441.3501656,-104.656,-1467.344417,-2206,-9046,-1124,3428,-816,-6692,59.7355957,63.80305664,59.76,67.38406812,0.035595703,0.083056641,0.000673828,-0.178353792
202,-10,1.1,2,31.29770992,1103.789959,-8476.066299,830.64,-499.2867771,-120.344,-1606.030672,-2066.901551,-9976.595918,-868,3428,-898.432782,-6569.140868,59.76,63.86,59.76,67.18536398,0.024404297,0.056943359,0,-0.198704138
202,-10,1.1,2,32.0610687,1414.995519,-8199.35671,689.28,-542.2155924,-133.488,-1728.744618,-1898,-10514,-612,3428,-1060,-6404,59.76,63.86,59.76,67.00970887,0,0,0,-0.175655114
202,-10,1.1,2,32.82442748,1690,-7892,630,-559,-139,-1831,-1853.05596,-10471.776,-629.68,3405.357806,-1258.286643,-6231.272437,59.76,63.87189716,59.7698877,66.88707624,0,0.01189716,0.009887695,-0.122632635
202,-10,1.1,2,33.58778626,1930,-7404,782,-547,-119,-1906,-1828.135326,-10371.088,-671.84,3342.793419,-1517.377281,-6042.123058,59.76,63.92566444,59.81603027,66.79922503,0,0.053767278,0.046142578,-0.087851204
202,-10,1.1,2,34.35114504,2059.340636,-7407.75,778.5625,-558.9744341,-119,-1982.966953,-1809.286711,-10250.912,-722.16,3248.350128,-1808.424599,-5839.53746,59.76,63.97255258,59.86205566,66.68486084,0,0.046888146,0.046025391,-0.114364191
202,-10,1.1,2,35.11450382,2150.843199,-7416,771,-588.8484909,-119,-2061.279345,-1782.558731,-10150.224,-764.32,3130.071225,-2102.581277,-5626.501242,59.75505394,63.99,59.88,66.64,-0.004946061,0.017447416,0.017944336,-0.04486084
202,-10,1.1,2,35.8778626,2237.924163,-7424.25,763.4375,-627.5483022,-119,-2136.452065,-1734,-10108,-782,2996,-2371,-5406,59.7084022,63.99,59.88,66.64,-0.04665174,0,0,0
202,-10,1.1,2,36.64122137,2354,-7428,760,-666,-119,-2204,-1491.968858,-10262.59283,-587.6190909,2767.739403,-2626.366619,-5172.008543,59.7,63.99,59.89714635,66.6544511,-0.008402198,0,0.017146346,0.014451101
202,-10,1.1,2,37.40458015,2532.102782,-7381.815789,833,-706.9813837,-139.4896907,-2273.830038,-1282,-10560,-256,2481,-2841,-4916,59.7,63.99,59.93940159,66.7137649,0,0,0.042255241,0.059313799
202,-10,1.1,2,38.16793893,2742,-7320,906,-749,-172,-2314,-1330.455153,-11019.40717,78.06284998,2214.554983,-3008.616874,-4640.930902,59.7,63.99,59.94,66.80077223,0,0,0.000598412,0.087007334
202,-10,1.1,2,38.93129771,3011.325243,-7299.809211,799.9652174,-786.5676718,-196.3436426,-2315.505369,-1430,-11336,318,1971,-3094,-4328,59.7,63.99,59.94,66.88193459,0,0,0,0.081162359
202,-10,1.1,2,39.69465649,3178,-7276,638,-817,-216,-2317,-1584.914396,-11020.17766,395.2515421,1785.20534,-3046.404703,-3967.558337,59.7,63.99,59.94,66.9334348,0,0,0,0.051500207
202,-10,1.1,2,40.45801527,3131.3875,-7112.375,514.0347826,-837.3050009,-226.2767584,-2349.273632,-1805.92567,-10284.64044,453.1124819,1628.428075,-2921.912542,-3565.4019,59.7,64.01214844,59.94,66.94,0,0.022148438,0,0.006565199
202,-10,1.1,2,41.22137405,3046,-6968,446,-852,-238,-2403,-2033.974109,-9447.28299,489.4171807,1470.186772,-2747.96411,-3111.294513,59.7,64.06,59.94,66.94,0,0.047851563,0,0
202,-10,1.1,2,41.98473282,2975.554946,-7129.497214,534.2621622,-859.5851996,-274.2916616,-2446.976949,-2210,-8826,502,1280,-2552,-2595,59.66502058,64.06,59.97497942,66.88125796,-0.034979424,0,0.034979424,-0.058742042
202,-10,1.1,2,42.7480916,2858,-7502,672,-870,-325,-2501,-2345.582012,-8406.179782,488.4583333,1033.621087,-2275.205696,-1924.396141,59.64,64.06235669,60,66.75930685,-0.025020576,0.002356688,0.025020576,-0.12195111
202,-10,1.1,2,43.51145038,2350,-8290,762,-943,-374,-2592,-2416,-8190,450,738,-1926,-1188,59.64,64.11236522,60,66.5281554,0,0.050008531,0,-0.231151453
202,-10,1.1,2,44.27480916,3332,-7995.457143,706.3572939,-882,-430.6048279,-2555.935185,-1871,-12462,-160.4583333,322.5000272,-1461.838033,-514.7730168,59.64,64.14805615,60,66.4969722,0,0.035690934,0,-0.031183194
202,-10,1.1,2,45.03816794,4314,-7614,576,-821,-503,-2510,-1326,-16734,-746,-13,-1169,137,59.64,64.17604838,60,66.52818237,0,0.027992228,0,0.031210173
202,-10,1.1,2,45.80152672,4191.411773,-7453.542857,158.6427061,-857.5,-652.17766,-2492.064815,-2037,-14796.41526,-111.987997,-149.2011099,-1314,796.8311917,59.64,64.19536942,60,66.56072822,0,0.019321041,0,0.032545844
202,-10,1.1,2,46.5648855,3900,-7380,-184,-894,-765,-2484,-2748,-11480,1130,-208,-1459,1373,59.64,64.2,60,66.55657111,0,0.004630578,0,-0.004157105
202,-10,1.1,2,47.32824427,3218,-7908,120,-863,-773,-2557,-2405.616563,-7888.584735,3025.784175,-138.9116567,-1215.447213,1873.038,59.64,64.2,60,66.40008941,0,0,0,-0.156481705
202,-10,1.1,2,48.09160305,2398,-9636,-284,-995,-821,-2615,-1728,-5676,4586,-9,-617,2137,59.64,64.2,60,66.22883324,0,0,0,-0.171256164
202,-10,1.1,2,48.85496183,1222,-9814,198,-1033,-834,-2799,-832,-11208,4938,139,956,1420,59.64,64.2,60,66.0620594,0,0,0,-0.166773847
202,-10,1.1,2,49.61832061,478,-11070,906,-1117,-893,-3121,123.3475949,-10413.38924,4125.407889,289.6729546,1958.725687,1471.556259,59.64,64.2,60,65.96675532,0,0,0,-0.095304079
202,-10,1.1,2,50.38167939,3102,-10233,220,-1030.5,-848.5,-3179.523841,1166,-8914,2422,374,2437,1587,59.64,64.20577041,60,65.88372307,0,0.005770405,0,-0.08303225
202,-10,1.1,2,51.14503817,5726,-9396,-466,-944,-804,-3218,2385.425634,-6733.610756,-1052.322551,20.33087357,2292.653893,1832.69784,59.64,64.26019744,60,65.79595289,0,0.05442703,0,-0.087770174
202,-10,1.1,2,51.90839695,5562.632813,-9462.429688,-426.46875,-946.1484375,-838.0116173,-3270.171305,3682,-5258,-3682,-467,1958,2131,59.64,64.27,60,65.7019628,0,0.009802565,0,-0.0939901
202,-10,1.1,2,52.67175573,5131.9375,-9637.5625,-322.25,-951.8125,-928.0844736,-3323.371191,4958,-6576,-3734,-674,1238,2340,59.64,64.27,60,65.61,0,0,0,-0.091962795
202,-10,1.1,3,53.4351145,4523.023438,-9885.164062,-174.90625,-959.8203125,-1056.275575,-3377.84661,3772.861456,-8063.591953,-2293.398321,-379.5,273.83161,2886.689563,59.64,64.27,59.98748219,65.54349512,0,0,-0.01251781,-0.066504877
202,-10,1.1,3,54.19847328,3825,-10169,-6,-969,-1204.641929,-3433.844513,1626,-8926,-244,-85,-318,3304,59.64,64.27,59.96214126,65.48742369,0,0,-0.025340932,-0.056071431
202,-10,1.1,3,54.96183206,3126.976562,-10452.83594,162.90625,-978.1796875,-1355.240542,-3491.611851,-1129.861456,-8720,995.3983209,-177.1030762,-192.2421651,3319.638071,59.64,64.27,59.94229595,65.42789291,0,0,-0.019845308,-0.059530778
202,-10,1.1,3,55.72519084,2518.0625,-10700.4375,310.25,-986.1875,-1490.128421,-3551.395578,-2924,-8514,1626,-402,71,3325,59.64,64.27,59.94,65.35072823,0,0,-0.00229595,-0.077164685
202,-10,1.1,3,56.48854962,2087.367187,-10875.57031,414.46875,-991.8515625,-1591.362571,-3613.442643,-2516,-8596,-128,-980,482,3301,59.64,64.27,59.94,65.26,0,0,0,-0.090728229
202,-10,1.1,3,57.2519084,1924,-10942,454,-994,-1641,-3678,-2053.218918,-8846.48331,1.948553055,-911.5,8.5,3905.5,59.64,64.27,59.94,65.16457653,0,0,0,-0.095423475
202,-10,1.1,3,58.01526718,4470.224944,-10627,-61,-937,-1651.058055,-3767.473705,-1598,-9040,356,-843,-465,4510,59.64,64.27326071,59.94,65.09199443,0,0.003260706,0,-0.072582094
202,-10,1.1,3,58.77862595,7894,-10312,-576,-880,-1664,-3824,-1214,-7166,1764,-864,-186,4373,59.64,64.31806133,59.94,65.04379559,0,0.044800623,0,-0.048198842
202,-10,1.1,3,59.54198473,9214,-10768,-136,-952,-1815,-3726,-2259,-7503.074236,1225.356219,-919.5187596,-9.789637599,4100.901045,59.64,64.37922392,59.91785874,65.06583147,0,0.06116259,-0.022141258,0.022035878
202,-10,1.1,3,60.30534351,8492.409043,-9903.726832,942.8461538,-1032.489265,-1921.426305,-3251.378723,-3304,-7910,458,-961,74,3812,59.64,64.41,59.88,65.11,0,0.03077608,-0.037858742,0.044168532
202,-10,1.1,3,61.06870229,7288,-8104,1734,-1079,-2043,-2549,-3016,-8007.186181,-8.356218906,-820.9348958,58.5,3640.317392,59.64,64.41,59.88,65.06583147,0,0,0,-0.044168532
202,-10,1.1,3,61.83206107,6263.883233,-5098.277981,1710.866386,-1057.166486,-2359.596595,-1913.193072,-2728,-8082,-246,-651,43,3474,59.64,64.41446045,59.88,65.04,0,0.004460449,0,-0.025831468
202,-10,1.1,3,62.59541985,5237.746137,-1019.827515,1647.288328,-993.9996381,-2777.576075,-1258.615596,-3353,-8211.739583,79.49606299,-599.0651042,52.38157895,3256.932922,59.64,64.46487549,59.88,65.04,0,0.050415039,0,0
202,-10,1.1,4,63.35877863,4382,2336,1552,-893,-2986,-631,-3978,-8294,458,-577,66,2983,59.64,64.51106014,59.88,65.04,0,0.046184652,0,0
202,-10,1.1,4,64.1221374,3782,4296,1306,-550,-2257,-58,-3766,-8110,526,-577,73,2579,59.64,64.55408492,59.88,65.04040784,0,0.043024785,0,0.000407844
202,-10,1.1,4,64.88549618,3980,1470,-1702.676414,-306.4396836,-1051.357957,-157,-4470,-7838,432,-500,59,2390,59.64,64.5925558,59.88,65.07569785,0,0.038470872,0,0.035290006
202,-10,1.1,4,65.64885496,4178,-1356,-4504,-44,60,-256,-4162,-8120,514,-454,57,1942,59.64,64.63462425,59.88,65.12462425,0,0.042068453,0,0.048926399
202,-10,1.1,4,66.41221374,1950,-1308,-1775,470.0161131,700.6548599,367.7275042,-4167,-8117.647059,543.948037,-406.1035901,61.08783784,1628.705605,59.64,64.68542411,59.88,65.17542411,0,0.050799857,0,0.050799857
202,-10,1.1,4,67.17557252,-278,-1260,954,938,1031,1364,-4172,-8110,556,-367,67,1386,59.64,64.69,59.88,65.16136377,0,0.004575894,0,-0.014060333
202,-10,1.1,4,67.9389313,16.375,-1341.25,798.4014119,1126.680253,1082.503597,2075.687321,-3818,-8010,238,-346,70,1209,59.64,64.69,59.88,65.11,0,0,0,-0.051363773
202,-10,1.1,4,68.70229008,664,-1520,416.5704316,1248.612333,1114.881161,2742.492874,-3569.224831,-8024,100.2048808,-299.6936817,80.06578947,965.1769481,59.64,64.72845836,59.88,65.0561807,0,0.038458359,0,-0.053819298
202,-10,1.1,4,69.46564885,1311.625,-1698.75,-64.04576441,1363.238245,1135.818145,3397.30199,-3334,-8038,42,-236,88,753,59.64,64.81119608,59.88,65.04,0,0.08273772,0,-0.016180702
202,-10,1.1,4,70.22900763,1606,-1780,-516,1530,1153,4073,-3044,-7494,160,-163,59,653,59.64,64.88925712,59.88,65.04,0,0.078061044,0,0
202,-10,1.1,4,70.99236641,1530,-1730,-932,1830,1167,4784,-2824.362739,-7509.969965,284.3304748,-148.9969149,55.3928122,605.6549072,59.64,64.94096805,59.88,65.06104766,0,0.051710923,0,0.021047656
202,-10,1.1,4,71.75572519,1452,-1888,-804,2040,1177,5198,-2630.028613,-7556.069896,410.6817842,-138.7865293,53.80392956,566.1317705,59.64,64.97,59.88,65.11,0,0.029031954,0,0.048952344
202,-10,1.1,4,72.51908397,1386,-2524,-600,2298,1168,5780,-2455.713116,-7629.584844,543.4678561,-131.9776862,52.91864082,535.9811804,59.64,64.97,59.83898438,65.15302507,0,0,-0.041015625,0.04302507
202,-10,1.1,4,73.28244275,1094,-3114,-598,2417,1099,6178,-2296.131747,-7727.799861,687.1026187,-128.1792287,51.42223472,516.7537268,59.63756908,64.97577433,59.82,65.19854315,-0.002430921,0.005774329,-0.018984375,0.045518084
202,-10,1.1,4,74.04580153,1414,-4060,-718,2545,985,6857,-2146,-7848,846,-127,48,510,59.61676601,65.02937712,59.82,65.24615913,-0.020803072,0.053602794,0,0.047615979
202,-10,1.1,4,74.80916031,1398,-4592,-1004,2625,949,7232,-2014,-8128,1042,-162,28,516,59.59095417,65.11111622,59.8444043,65.298511,-0.025811837,0.081739094,0.024404297,0.052351867
202,-10,1.1,4,75.57251908,1356.301912,-5088.691299,-985.3149743,2680.826438,933.5422222,7645.901223,-1862,-7286,1216,-189,33,631,59.58015266,65.18645861,59.88,65.33,-0.010801514,0.075342391,0.035595703,0.031488999
202,-10,1.1,4,76.33587786,1301.373178,-5587.204012,-939.074393,2725.635441,922.9377778,8049.02596,-2076,-8320,1136,-248,28,766,59.59477712,65.2541984,59.88,65.33,0.014624466,0.067739791,0,0
202,-10,1.1,4,77.09923664,1274,-6202,-880,2744,919,8271,-1474,-7414,1108,-272,80,861,59.62039284,65.32250309,59.88,65.33980256,0.025615713,0.068304689,0,0.009802565
202,-10,1.1,4,77.86259542,1363.481481,-7228.109893,-773.483298,2727.405142,921.0832866,8339.551356,-1442,-7522,1164,-321,53,1031,59.63868105,65.38398824,59.88,65.39422959,0.018288215,0.06148515,0,0.05442703
202,-10,1.1,4,78.6259542,1587.185185,-8697.118441,-600.5919547,2681.318677,927.9109616,8395.910181,-1293.045872,-7655.282185,1223.270655,-380.8648765,63.94893131,1212.563008,59.64,65.4397719,59.88,65.4,0.00131895,0.055783664,0,0.005770405
202,-10,1.1,4,79.38931298,1878,-10328.31868,-399.5619618,2611.287767,940.3497477,8439.955465,-1066.856269,-7789.085537,1279.190883,-447.9777294,87.78675151,1401.416874,59.64040301,65.46847547,59.88,65.4,0.000403012,0.02870357,0,0
202,-10,1.1,4,80.15267176,2168.814815,-11841.00367,-208.6293107,2522.859575,959.2663677,8471.566201,-950,-7850,1304,-518,111,1595,59.67398738,65.34587218,59.88,65.4,0.033584368,-0.122603297,0,0
202,-10,1.1,4,80.91603053,2392.518519,-12954.46642,-66.02999293,2421.581266,985.5275442,8490.621382,-1028.682622,-7784.87319,1262.212652,-594.3017416,128.1018896,1810.410345,59.71486947,65.22033099,59.88,65.4155051,0.040882087,-0.125541186,0,0.015505103
202,-10,1.1,4,81.67938931,2482,-13388,-10,2313,1020,8497,-1231.887865,-7623.099569,1159.197956,-678.0682728,143.7098979,2047.958369,59.7515371,65.13318615,59.88,65.51686873,0.036667636,-0.087144841,0,0.101363628
202,-10,1.1,4,82.44274809,2111,-12162,-794,2152.488089,1488.774901,8267.905088,-1510.351797,-7415.089353,1028.476935,-761.6839333,159.4669613,2279.901221,59.77775103,65.05296617,59.88,65.58108892,0.026213927,-0.080219977,0,0.064220184
202,-10,1.1,4,83.20610687,1740,-10936,-1578,1955,2215,7852,-1814.810486,-7211.252758,903.5706085,-837.5330625,177.0160165,2478.496048,59.80129335,64.97015891,59.88,65.61,0.023542322,-0.082807259,0,0.028911085
202,-10,1.1,4,83.96946565,2217.889919,-10980.8,-1426.667582,1771.890378,2819.943025,7419.391583,-2096,-7062,818,-898,198,2616,59.8169887,64.91158607,59.88,65.61,0.015695348,-0.058572846,0,0
202,-10,1.1,4,84.73282443,2888,-11076,-1118,1575,3247,6964,-2388.891362,-6955.449777,763.6371138,-942.711394,226.097581,2711.692718,59.82,64.9,59.870625,65.619,0.0030113,-0.011586067,-0.009375,0.009
202,-10,1.1,4,85.49618321,3226.778562,-11281.2,-585.9708376,1328.481939,3418.998825,6555.484937,-2741.087817,-6849.010386,711.1172897,-978.5117044,262.1930665,2801.862259,59.82,64.9,59.82257813,65.67941667,0,0,-0.048046875,0.060416667
202,-10,1.1,4,86.25954198,3466,-11436,-122,1096,3492,6170,-3122.273768,-6747.026444,662.1065518,-1008.611988,303.7378499,2884.278395,59.82,64.9,59.82,65.72608853,0,0,-0.002578125,0.046671863
202,-10,1.1,4,87.02290076,3610,-11214,-4,941,3418,5814,-3502.133615,-6653.842565,618.2709242,-1036.223302,348.1833245,2956.710897,59.82135964,64.89759945,59.82,65.76804864,0.00135964,-0.002400549,0,0.041960111
202,-10,1.1,4,87.78625954,3606,-10764.55878,270.2305861,802.2849,3169.406809,5285.302604,-3850.351761,-6573.803366,581.2764311,-1064.556703,392.9808835,3016.929537,59.85502181,64.84814815,59.82,65.80565306,0.033662171,-0.049451303,0,0.037604415
202,-10,1.1,4,88.54961832,3602,-10224,508,687,2795,4649,-4136.612606,-6511.253462,552.7890966,-1096.823249,435.5819202,3062.704086,59.89732535,64.83,59.82,65.84897753,0.042303535,-0.018148148,0,0.043324469
202,-10,1.1,4,89.3129771,3613,-9723.839495,577.5639344,606.7490592,2392.082411,3962.154809,-4330.600552,-6470.537468,534.4749448,-1136.233995,473.437828,3091.804317,59.93819483,64.83,59.82,65.90059979,0.040869479,0,0,0.051622268
202,-10,1.1,4,90.07633588,3624,-9306,606,537,1922,3201,-4402,-6456,528,-1186,504,3102,59.94,64.819653,59.79264401,65.95205136,0.001805175,-0.010346996,-0.027355994,0.051451571
202,-10,1.1,4,90.83969466,3434,-9058,592,465,1361,2340,-4372,-6777,763,-1276.572322,522.6101922,3029,59.94,64.79024042,59.76,65.98,0,-0.029412583,-0.032644006,0.027948635
202,-10,1.1,4,91.60305344,3188,-8940,416,426,1034,1732,-4342,-7098,998,-1364,547,2956,59.94,64.76433397,59.76,65.98,0,-0.025906447,0,0
202,-10,1.1,4,92.36641221,2322,-11200,102,301,483,902,-4553,-6547,903.9047619,-1410.931174,693.8822115,2999.5,59.94,64.81841645,59.76,65.98,0,0.054082473,0,0
202,-10,1.1,4,93.12977099,2202,-24150,-1866,-607,-535,1022,-4764,-5996,686,-1433,848,3043,59.94,65.02928557,59.76,65.98,0,0.210869123,0,0
202,-10,1.1,4,93.89312977,3897,-19093.16071,-1360.606209,-601.1377246,23.5,21.78170059,-4600,-6391.225368,24.0952381,-1430.310606,880.0596345,3034.186947,59.94,64.84850804,59.75113115,66.00069399,0,-0.180777529,-0.008868854,0.020693992
202,-10,1.1,4,94.65648855,5592,-11922,-282,-585,582,-1089,-4436,-7180,-514,-1423,911,3012,59.94,64.62053748,59.72592036,66.05951916,0,-0.227970563,-0.025210786,0.058825166
202,-10,1.1,4,95.41984733,2559.435279,-7632.83929,2079.606209,-423.8622754,324.7961269,-1219.202628,-4446,-8105.683496,-484.8873239,-1359.689394,1025.606862,2937.035022,59.94,64.66373554,59.70371483,66.11133205,0,0.04319806,-0.022205526,0.051812895
202,-10,1.1,4,96.18320611,-2608,-5458,3868,-273,-251,-1336,-4456,-9528,-436,-1301,1150,2817,59.94,64.71517671,59.71251781,66.12,0,0.051441172,0.008802976,0.008667947
202,-10,1.1,4,96.94656489,-7024,-12042,1644,-355,-1357,-1695,-4318,-12562,-396,-1482,1202,2678,59.94,64.75820244,59.75770405,66.12,0,0.043025733,0.045186241,0
202,-10,1.1,4,97.70992366,-6158,-9398,198,-70,-1587,-2176,-2022,-14030,1730,-1671,1224,2745,59.94,64.73107828,59.76,66.12,0,-0.027124166,0.00229595,0
202,-10,1.1,4,98.47328244,-204,-7232,-3856,-634,-1110,-3231,-552,-13266,1754,-1731,1169,2963,59.94,64.63882795,59.76,66.12089844,0,-0.092250327,0,0.000898437
202,-10,1.1,4,99.23664122,-824,-9364,-3386,-625,-813,-3443,-2900,-13302,460,-2021,1385,3155,59.94,64.52787823,59.76,66.18144531,0,-0.110949718,0,0.060546875
202,-10,1.1,4,100,-260.7970842,-9328,-1312.509018,-127.5082385,-982,-3894.226109,-2464,-14304,1026,-1895,1335,3477,59.94,64.4387188,59.75628517,66.2,0,-0.089159433,-0.003714834,0.018554688
202,-10,1.1,1,0,976,-9292,1610,362,-1151,-4213,-3069,-13378,554.0405405,-1823.465766,1377.919668,3687.899411,59.94,64.35934058,59.73407964,66.2,0,-0.079378218,-0.022205526,0
202,-10,1.1,1,0.840336134,3212,-10242,3994,269,-766,-4113,-3674,-12452,10,-1756,1462,3793,59.94,64.27604337,59.70886885,66.2,0,-0.083297215,-0.025210786,0
202,-10,1.1,1,1.680672269,2266,-7120,3526,109,-875,-4008,-2642,-13193,-110.0405405,-1657.985956,1599.580332,3797.533664,59.94,64.17794476,59.7,66.20149603,0,-0.098098601,-0.008868854,0.001496031
202,-10,1.1,1,2.521008403,2396.816276,-7193.015873,2110.084928,-151.9240649,-718.9369369,-4070.481481,-1610,-13934,-158,-1541,1696,3802,59.94,64.04669281,59.7,66.24286587,0,-0.131251959,0,0.041369835
202,-10,1.1,1,3.361344538,2648.521441,-7388.698413,163.3757971,-444.3509213,-392.8738739,-4186.518519,-1834.195777,-13194.45859,165,-1368.408818,1441.5,3905.154028,59.93125812,63.94510563,59.7,66.30713413,-0.008741882,-0.101587174,0,0.064268268
202,-10,1.1,1,4.201680672,2810,-7672,-818,-583,-110,-4249,-2424,-11776,488,-1257,1187,4004,59.88795984,63.87165601,59.7,66.34850397,-0.043298277,-0.073449627,0,0.041369835
202,-10,1.1,1,5.042016807,2840,-8316,-380,-569,51,-4247,-6201.804223,-9605.541409,-201,-1343.5,1369.81867,3990.920223,59.84272505,63.82238647,59.7,66.35,-0.045234795,-0.049269538,0,0.001496031
202,-10,1.1,1,5.882352941,2203,-7843,-305.5330885,-475.4004144,-39.5,-4129.97254,-9614,-8114,-890,-1430,1669,3954,59.82,63.78159457,59.70028032,66.35070289,-0.022725046,-0.040791898,0.00028032,0.00070289
202,-10,1.1,1,6.722689076,1566,-7370,-222,-384,-130,-3992,-9290.907187,-8957,-406.4818594,-1235.424367,1880.475045,3550.970133,59.82,63.74077146,59.70870912,66.37267237,0,-0.040823108,0.0084288,0.021969483
202,-10,1.1,1,7.56302521,2186,-7618,884,-373,28,-3962,-8608,-9800,498,-947,2119,2926,59.80608398,63.69829422,59.72462592,66.41735901,-0.013916016,-0.042477236,0.0159168,0.044686632
202,-10,1.1,1,8.403361345,3550.886486,-7889.910766,587.3907455,-368.0350999,0.192115995,-3757.762016,-7550.262523,-8573.566898,1778.481859,-797.1467899,2586.206285,2481.589515,59.76067383,63.65426731,59.74227072,66.47379747,-0.045410156,-0.044026912,0.0176448,0.056438461
202,-10,1.1,1,9.243697479,4524,-8046,142,-362,-39,-3449,-6080,-6096,2638,-640,2910,1984,59.76,63.60345725,59.75588352,66.53102244,-0.000673828,-0.050810063,0.0136128,0.057224969
202,-10,1.1,1,10.08403361,4231.037037,-8013.851852,-178.990955,-307.0584512,-62.08228029,-3197.524271,-3783.476071,-1733.288477,2260.713715,-303.0216469,2732.58446,1046.258008,59.76,63.58179756,59.76,66.57807418,0,-0.021659691,0.00411648,0.047051749
202,-10,1.1,1,10.92436975,3686.962963,-7954.148148,-463.3843664,-202.3985362,-81.0966957,-2944.555927,-1136.738035,3747.466873,1186.094096,110.8780654,2283.391142,-68.87099618,59.76,63.62482329,59.76,66.61547604,0,0.043025733,0,0.037401859
202,-10,1.1,2,11.76470588,3394,-7922,-586,-109,-89,-2667,130,6442,-500,313,1687,-608,59.76,63.67170578,59.76,66.67859772,0,0.046882485,0,0.063121678
202,-10,1.1,2,12.60504202,4678,-7986,622,-50,-16,-2336,-4282,4672,-5754,161,662,-101,59.76,63.71573269,59.76,66.78065953,0,0.044026912,0,0.102061808
202,-10,1.1,2,13.44537815,4774.389653,-7906,1113.923311,-74.72727273,-70.5,-1909.946502,-2656.280674,2780.872863,-4779.297491,615.7016288,456.850939,-544.1877082,59.76,63.76654275,59.76,66.88973447,0,0.050810063,0,0.109074938
202,-10,1.1,2,14.28571429,4804,-7826,1318,-118,-125,-1526,-178,910,-2746,1347,385,-1475,59.76,63.79,59.76,66.94,0,0.023457249,0,0.050265533
202,-10,1.1,2,15.12605042,4312,-8016,706,-158,-113,-1306,1324,-792,396,1872,947,-2943,59.76,63.79,59.76,66.94,0,0,0,0
202,-10,1.1,2,15.96638655,3897.686799,-8188.639044,901.4814815,-184.2541287,-100.9747833,-1065.426131,1592,-940,2126,1982,909,-3426,59.76,63.8224707,59.77391602,66.96502142,0,0.032470703,0.013916016,0.025021424
202,-10,1.1,2,16.80672269,3519.346971,-8341.875078,1264.518519,-205.6386923,-89.87628054,-826.3959061,1215.440854,-1430.627289,1127.851852,2219.947686,732.0829894,-4024.768247,59.76,63.92842773,59.81932617,67.08032293,0,0.105957031,0.045410156,0.115301502
202,-10,1.1,2,17.64705882,3144,-8408,1460,-230,-85,-658,443.7705978,-2166.531342,-725.8518519,2562.065634,417.4576975,-4669.597502,59.76,63.86660381,59.78735599,67.1624441,0,-0.061823923,-0.031970178,0.082121176
202,-10,1.1,2,18.48739496,2666.788988,-8332.286695,1039.654362,-271.1162791,-88,-553.4878694,-186,-2688,-1724,2901,112,-5203,59.76,63.77919747,59.76,67.27029067,0,-0.087406337,-0.027355994,0.107846563
202,-10,1.1,2,19.32773109,2382,-8146,544,-298,-91,-504,-518.2554057,-2861.289616,-1631.883436,3237.599783,-143.0953416,-5564.427848,59.76,63.73621337,59.76,67.49354722,0,-0.042984101,0,0.223256553
202,-10,1.1,2,20.16806723,2670,-7654,446,-265,-50,-504,-764,-3040,-1504,3496,-370,-5885,59.76,63.6949774,59.76,67.58359188,0,-0.041235974,0,0.090044664
202,-10,1.1,2,21.00840336,2606,-7924,260,-258,-73,-482,-958.6765008,-3529.355898,-1443.227537,3606.689708,-549.2836691,-6263.124635,59.76,63.65411067,59.76,67.62418674,0,-0.040866733,0,0.040594852
202,-10,1.1,2,21.8487395,2490,-7580,584,-252,-67,-502,-1086,-4234,-1398,3688,-699,-6577,59.76,63.60370853,59.76,67.70957162,0,-0.050402139,0,0.085384882
202,-10,1.1,2,22.68907563,2256,-7686,520,-261,-104,-550,-1136,-5052,-1364,3768,-819,-6742,59.76,63.58,59.76,67.79219534,0,-0.023708528,0,0.082623717
202,-10,1.1,2,23.52941176,1928,-7828,562,-281,-106,-565,-1386,-6038,-1132,3868,-927,-6977,59.76,63.58,59.76,67.84210266,0,0,0,0.049907328
202,-10,1.1,2,24.3697479,1633.039631,-7821.777778,567.3014012,-289.9043045,-101.3333333,-632.1901259,-1672,-6698,-760,3884,-969,-7141,59.76,63.58,59.76,67.89136019,0,0,0,0.049257524
202,-10,1.1,2,25.21008403,1372.297593,-7810.222222,569.6224103,-295.9368141,-92.66666667,-758.8371753,-1954,-7416,-116,3906,-935,-7367,59.76,63.58,59.76,67.92955212,0,0,0,0.038191937
202,-10,1.1,2,26.05042017,1260,-7804,574,-305,-88,-903,-2390.581927,-8019.205993,6.406015038,3880.354923,-851.5144403,-7516.137305,59.76,63.65103994,59.76,67.85876119,0,0.071039935,0,-0.070790939
202,-10,1.1,2,26.8907563,1261.678223,-7830,620.1343173,-325.5238233,-91.60582524,-1060.371115,-2870.179853,-8551.873278,77.20300752,3828.265402,-743.5349979,-7633.457541,59.76,63.73648838,59.76,67.75768013,0,0.085448442,0,-0.101081059
202,-10,1.1,2,27.73109244,1267.51467,-7892,719.901107,-359.1562527,-101.8174757,-1246.744949,-3096,-8930,100,3787,-690,-7681,59.76,63.78223926,59.76,67.69973562,0,0.045750883,0,-0.057944506
202,-10,1.1,2,28.57142857,1278.712005,-7966,836.600738,-401.6267704,-117.7262136,-1450.333226,-2983.230967,-9195.126145,37.92592593,3766.251897,-707.1726349,-7664.589336,59.76,63.79,59.76,67.64415148,0,0.00776074,0,-0.055584141
202,-10,1.1,2,29.41176471,1296.472893,-8028,933.5335793,-448.6648588,-138.423301,-1659.347669,-2699.761315,-9437.707013,-117.2592593,3749.780053,-756.685765,-7619.863653,59.76,63.79,59.76,67.56098623,0,0,0,-0.083165248
202,-10,1.1,2,30.25210084,1322,-8054,974,-496,-163,-1862,-2327.84722,-9647.113717,-319,3735.951705,-835.5322284,-7553.582414,59.76,63.79,59.76,67.35003691,0,0,0,-0.210949319
202,-10,1.1,2,31.09243697,1602,-7748,924,-549,-213,-2060,-1949.744853,-9812.717373,-520.7407407,3723.134089,-940.7048632,-7472.505083,59.76,63.79153877,59.76494606,67.10913952,0,0.001538775,0.004946061,-0.240897394
202,-10,1.1,2,31.93277311,1690,-7340,900,-607,-202,-2244,-1647.710389,-9923.889096,-675.9259259,3709.694442,-1069.196508,-7383.391124,59.76,63.81287503,59.8115978,66.92493465,0,0.021336251,0.04665174,-0.18420487
202,-10,1.1,2,32.77310924,1918,-7464,468,-650,-209,-2506,-1504,-9970,-738,3694,-1218,-7293,59.76,63.84276002,59.82,66.80630175,0,0.029884999,0.008402198,-0.1186329
202,-10,1.1,2,33.61344538,2224.7904,-7437.125,549.5625,-683.1093502,-234.1442958,-2631.732939,-1482.547973,-9975.869383,-660.4253898,3679.144432,-1546.263265,-7190.732333,59.76,63.8598219,59.82,66.72648307,0,0.017061877,0,-0.079818678
202,-10,1.1,2,34.45378151,2583.658069,-7378,729,-713.736089,-280.4031981,-2729.528024,-1458,-9982,-494,3656,-1949,-7051,59.76,63.86,59.84753926,66.66157402,0,0.000178099,0.02753926,-0.064909052
202,-10,1.1,2,35.29411765,2904.696704,-7318.875,908.4375,-736.2447834,-335.7105014,-2797.059097,-1075.16962,-10008.74893,-122.5746102,3537.070348,-2242.776295,-6834.486873,59.76,63.87648687,59.89234688,66.64,0,0.016486872,0.04480762,-0.02157402
202,-10,1.1,2,36.13445378,3098,-7292,990,-745,-388,-2832,-714,-10070,160,3338,-2478,-6545,59.76,64.03199267,59.93421578,66.64,0,0.155505801,0.041868899,0
202,-10,1.1,2,36.97478992,3187.866715,-7716,818.6785714,-744,-437.7763967,-2843.0777,-902.2052908,-10427.75651,149,3118.279716,-2673.449697,-6186.085343,59.76,64.06,59.94,66.67467293,0,0.028007327,0.005784222,0.034672932
202,-10,1.1,2,37.81512605,3228,-8140,522,-743,-485,-2854,-1318,-10900,138,2839,-2774,-5747,59.76,64.06,59.94,66.79,0,0,0,0.115327068
202,-10,1.1,2,38.65546218,3173,-7968,281.4205539,-832.5,-531.9132353,-2894.183215,-2084,-11156,598,2445,-2656,-5199,59.72214126,64.01583147,59.97785874,66.90006523,-0.037858742,-0.044168532,0.037858742,0.110065227
202,-10,1.1,2,39.49579832,3118,-7796,-18,-922,-558,-2941,-2266,-11214,890,2111,-2483,-4705,59.7,63.99997117,60,66.9367342,-0.022141258,-0.015860297,0.022141258,0.036668969
202,-10,1.1,2,40.33613445,3354,-7830,-538,-915,-515,-2966,-2092,-11002,1184,1487,-2163,-3622,59.7,64.10197363,60,66.89323995,0,0.102002458,0,-0.043494247
202,-10,1.1,2,41.17647059,3386.664691,-7311,-559.6186047,-919.5652174,-501.9873272,-3015.517117,-1668,-10930,386,1087,-1884,-2732,59.7,64.14790423,60,66.82462132,0,0.045930606,0,-0.068618626
202,-10,1.1,2,42.01680672,3414,-6792,-566,-929,-497,-3089,-1903.407407,-10375.99216,975.6296296,881.2611178,-1721.898356,-1659.88263,59.7,64.16680106,60,66.72,0,0.018896824,0,-0.104621323
202,-10,1.1,2,42.85714286,3540.896552,-7504.070518,-458.5931378,-942.4347826,-509.8936709,-3205.869634,-2491.925926,-9163.163298,2449.703704,732.604702,-1607.877196,-406.5612955,59.7,64.183165,60,66.57206345,0,0.016363945,0,-0.147936546
202,-10,1.1,2,43.69747899,3644,-8636,-226,-961,-541,-3334,-3257,-7630.231533,4366,615.4905674,-1515.206649,870.5258191,59.7,64.21235496,60,66.47051264,0,0.029189961,0,-0.101550814
202,-10,1.1,2,44.53781513,3404.805132,-9427.126782,308.9063191,-983.0740741,-651.5253657,-3418.551509,-4022.074074,-6115.914982,6282.296296,504.3785289,-1417.156848,2013.94053,59.7,64.26490042,60,66.42345364,0,0.052545461,0,-0.047059002
202,-10,1.1,2,45.37815126,2901.610265,-10166.44161,1040.008715,-1010.481481,-834.6560759,-3493.051874,-4610.592593,-4958.931765,7756.37037,373.7284015,-1286.997921,2866.244651,59.67983539,64.27,60,66.42767963,-0.020164609,0.005099576,0,0.004225987
202,-10,1.1,2,46.21848739,2456,-10922,1408,-1045,-977,-3602,-4846,-4498,8346,198,-1098,3270,59.64053498,64.27,60,66.455,-0.039300412,0,0,0.027320375
202,-10,1.1,2,47.05882353,2118.594226,-11900.27588,1118.165221,-1096.380605,-1053.072167,-3871.011835,-3468.405788,-4547.45219,6125.0625,-37.19112336,-571.6908516,3359.244137,59.64,64.22847168,60,66.48232037,-0.000534979,-0.04152832,0,0.027320375
202,-10,1.1,2,47.89915966,1936,-12540,636,-1161,-1100,-4173,-358.2487683,-4695.539172,1239,-327.8120621,290.6636875,3404.982798,59.64,64.20645996,60,66.47708008,0,-0.022011719,0,-0.005240296
202,-10,1.1,2,48.7394958,1984.4375,-12634.27228,299.3445943,-1245.768639,-1123.923773,-4385.66367,2950.532636,-4941.856569,-3647.0625,-671.7769697,1096.186383,3455.23006,59.64,64.26354004,60,66.36291992,0,0.057080078,0,-0.114160156
202,-10,1.1,2,49.57983193,2091,-12699.63091,-4.753530517,-1347.572123,-1142.932243,-4584.478818,4924,-5286,-5868,-1067,1452,3558,59.64,64.27,60,66.35,0,0.006459961,0,-0.012919922
202,-10,1.1,2,50.42016807,2197.5625,-12737.67409,-371.4748901,-1433.089546,-1155.474591,-4731.554557,5472,-6452,-5704,-1605,99,4006,59.64,64.27,60,66.35,0,0,0,0
202,-10,1.1,3,51.2605042,2246,-12750,-896,-1469,-1160,-4789,3590.773585,-8339.279677,-3948.497258,-1183.865643,-602.8464212,4544.506073,59.64,64.27,60.01251781,66.28788899,0,0,0.01251781,-0.062111014
202,-10,1.1,3,52.10084034,2104,-10438,-2028,-1391,-1134,-4509,-48,-9570,-878,-706,-916,4981,59.64,64.27,60.03785874,66.14163716,0,0,0.025340932,-0.146251824
202,-10,1.1,3,52.94117647,2686,-8880,-1822,-1033,-1213,-4450,-4548,-8978,2606,-635,-850,5171,59.64,64.27,60.05770405,65.97136635,0,0,0.019845308,-0.17027081
202,-10,1.1,3,53.78151261,3871.381967,-9684.573451,-1674.174007,-842.6159284,-1244.984974,-4712.5,-6250.300188,-9998,1675.757709,-1165,-4.100826826,4866,59.64,64.29214844,60.06,65.81591112,0,0.022148438,0.00229595,-0.155455232
202,-10,1.1,3,54.62184874,5678,-11150,-1452,-757,-1276,-4975,-6942,-11018,454,-1695,786,4561,59.64,64.34,60.06,65.63987392,0,0.047851563,0,-0.176037203
202,-10,1.1,3,55.46218487,8560,-12672,-336,-809,-1346,-4950,-6412.592593,-10018.2963,-102.7544461,-1637.203036,526.4814815,4776.703704,59.59898438,64.34,60.06,65.47565397,-0.041015625,0,0,-0.164219951
202,-10,1.1,3,56.30252101,9050,-12834,2436,-952,-1501,-4309,-5429.407407,-8161.703704,-525.9327786,-1513.406072,44.51851852,5177.296296,59.58,64.346839,60.05300027,65.36083605,-0.018984375,0.006838999,-0.006999732,-0.114817913
202,-10,1.1,3,57.14285714,8167.392844,-11945.87633,3817.342215,-1132.970509,-1717.552901,-3761.377634,-4900,-7162,-694,-1398,-215,5393,59.58,64.39585182,60.00891072,65.28120971,0,0.049012823,-0.044089543,-0.079626347
202,-10,1.1,3,57.98319328,6620,-10038,4426,-1242,-2003,-3155,-4910.888889,-7193.62963,-430.0740741,-1323.460555,-150.783468,5156.299959,59.58,64.43882353,59.98671289,65.20826832,0,0.042971708,-0.022197833,-0.072941387
202,-10,1.1,3,58.82352941,4819.607156,-6802.771237,4370.192188,-1182.484496,-2543.133099,-2122.994677,-4931.111111,-7252.37037,60.07407407,-1255.419108,-15.6780472,4621.155473,59.58,64.48,59.96947857,65.13034386,0,0.041176471,-0.017234322,-0.077924455
202,-10,1.1,3,59.66386555,3684,-2500,4210,-1057,-2921,-1180,-4942,-7284,324,-1168,104,4050,59.58,64.5208711,59.95527483,65.05761073,0,0.040871096,-0.014203737,-0.072733133
202,-10,1.1,3,60.50420168,4972,3221.647567,1391.715187,-871.5509146,-2423.281875,-687.9418429,-3964,-7186,-20,-1023,176,3501,59.58553711,64.56286501,59.945185,65.00109464,0.005537109,0.041993915,-0.010089837,-0.05651609
202,-10,1.1,4,61.34453782,6260,6856,-2026,-597,-1548,-417,-4267.124032,-7513,-283.9624631,-943.8137633,81,3188.498931,59.63446289,64.606815,59.94029237,64.97182131,0.048925781,0.043949992,-0.004892622,-0.029273326
202,-10,1.1,4,62.18487395,4153.827188,3640.732979,-3286.907375,-164.6126037,-527.8275459,-357.1485855,-4692,-7840,-418,-879,-14,2912,59.6155957,64.65816162,59.94,64.97,-0.018867187,0.051346619,-0.000292374,-0.001821313
202,-10,1.1,4,63.02521008,1390,-170,-3844,355,130,-291,-4937.63135,-7663.703704,-85.62962963,-793.7553633,2.231093369,2563.882533,59.58,64.69,59.94,64.97,-0.035595703,0.031838379,0,0
202,-10,1.1,4,63.86554622,160.1728118,-1075.307107,-1179,900.7959326,146.1055387,971.2069566,-5138.704564,-7336.296296,531.6296296,-709.0968377,34.90663118,2187.086975,59.58,64.69,59.94,64.97,0,0,0,0
202,-10,1.1,4,64.70588235,-412,-1604,1486,1342,161,2599,-5222,-7160,864,-668,60,1809,59.58,64.69,59.94,64.96924496,0,0,0,-0.000755043
202,-10,1.1,4,65.54621849,-308.2962167,-2028.425872,1472.892,1569.471504,277.3381743,3283.425164,-4692,-7674,664,-665,70,1438,59.58,64.69,59.94,64.95783305,0,0,0,-0.011411912
202,-10,1.1,4,66.38655462,-22,-2234,1428,1724,452,3807,-4575.95695,-7610,295.1298077,-651.5089286,77.97763975,1201.589634,59.58,64.66152832,59.94,64.93821027,0,-0.02847168,0,-0.019622776
202,-10,1.1,4,67.22689076,1188,-1974,58,1827,596,4290,-4460,-7546,-56,-625,89,1017,59.58,64.6203591,59.94,64.91751651,0,-0.041169225,0,-0.020693759
202,-10,1.1,4,68.06722689,1296.208373,-1672.442953,-887.12,2017.950465,722.0380255,4964.006832,-3724.566228,-7783,-261.4375,-565.0940697,140.9652174,842.1210457,59.58,64.65716392,59.94,64.90289165,0,0.036804821,0,-0.014624859
202,-10,1.1,4,68.90756303,1330,-1496,-1350,2291,789,5694,-2716,-8020,-360,-490,185,722,59.58,64.73253623,59.930625,64.9078457,0,0.075372314,-0.009375,0.004954046
202,-10,1.1,4,69.74789916,1194,-1856,-1302,2686,777,6345,-2040,-7118,348,-433,103,678,59.58,64.81530267,59.88257813,64.96067976,0,0.082766442,-0.048046875,0.052834061
202,-10,1.1,4,70.58823529,1089.255591,-2522.006698,-1155.81461,2938.091302,647.0467399,6882.560861,-2060.3125,-7261.75,379.4065619,-434.3596706,114.5625,691.4503769,59.60502058,64.90583642,59.88,64.99865234,0.025020576,0.090533751,-0.002578125,0.037972582
202,-10,1.1,4,71.42857143,1036,-3350,-1006,3102,441,7385,-2105,-7578,391.4349619,-438.3757881,140,724.951005,59.64,64.97,59.88,65.04,0.034979424,0.064163577,0,0.041347658
202,-10,1.1,4,72.26890756,1229.424606,-4304.976444,-944.3457608,3191.82415,262.0259035,7945.344799,-2149.6875,-7894.25,401.245881,-444.9540117,165.4375,768.2261307,59.64,64.97,59.88,65.1221178,0,0,0,0.082117801
202,-10,1.1,4,73.1092437,1482,-5034,-904,3244,86,8406,-2170,-8038,426,-454,177,811,59.64,64.97,59.88,65.22380388,0,0,0,0.101686079
202,-10,1.1,4,73.94957983,1568,-5264,-878,3265,-73,8648,-1865.981612,-7669,542.0166878,-484.8815758,138.5,848.1503795,59.64,64.97,59.88,65.32553475,0,0,0,0.101730873
202,-10,1.1,4,74.78991597,1944,-5980,-698,3275,-218,8989,-1396,-7300,738,-540,100,902,59.64,65.01169138,59.88,65.26161001,0,0.041691384,0,-0.063924738
202,-10,1.1,4,75.6302521,1594,-6144,-528,3261,-333,9223,-1098,-7450,990,-623,152,1040,59.64040301,65.122732,59.88,65.18055472,0.000403012,0.111040618,0,-0.081055295
202,-10,1.1,4,76.47058824,1124,-6634,-442,3191,-496,9548,-1378,-7548,1356,-724,162,1294,59.67398738,65.33234674,59.88,65.22610462,0.033584368,0.209614738,0,0.045549902
202,-10,1.1,4,77.31092437,1141,-7388.685531,-1157,3165.688467,-489.1944444,9736.709799,-1800,-7556,864,-818,212,1588,59.71665785,65.4,59.8884022,65.28007626,0.042670466,0.06765326,0.008402198,0.05397164
202,-10,1.1,4,78.1512605,1158,-8340,-1872,3151,-468,9824,-1666,-7854,772,-867,360,1737,59.75659271,65.4,59.93505394,65.32614451,0.039934867,0,0.04665174,0.046068254
202,-10,1.1,4,78.99159664,1090,-9494,-1852,3142,-283,9816,-1950,-8022,1042,-910,287,1993,59.76,65.37906494,59.94,65.33,0.003407287,-0.020935059,0.004946061,0.003855485
202,-10,1.1,4,79.83193277,576,-11034,-838,3095,100,9894,-1548,-7510,1394,-922,273,2096,59.76,65.32574991,59.93932617,65.33270738,0,-0.053315033,-0.000673828,0.002707384
202,-10,1.1,4,80.67226891,178.5516549,-11084.9278,-1027.0625,3018.788337,747.7736112,9810.201077,-1612.156609,-7553.111111,1385.139663,-955.3875207,286.1073935,2246.416253,59.76,65.28691296,59.89391602,65.52742701,0,-0.038836949,-0.045410156,0.194719624
202,-10,1.1,4,81.51260504,-189.6763067,-11116.10249,-1443,2919.997476,1614.495875,9601.369538,-1777.256703,-7660.888889,1356.313589,-1015.736712,322.0769927,2438.058518,59.76,65.204376,59.88,65.64281878,0,-0.082536963,-0.013916016,0.115391772
202,-10,1.1,4,82.35294118,-460.566115,-11131.72593,-1858.9375,2819.457876,2546.720202,9331.35323,-2002.245686,-7801,1304.154182,-1096.510065,375.8799251,2646.732409,59.76,65.05679548,59.88,65.68479962,0,-0.147580514,0,0.041980841
202,-10,1.1,4,83.19327731,-566,-11136,-2048,2738,3391,9064,-2246.068962,-7941.111111,1225.293845,-1191.17007,442.4873186,2848.243543,59.76,65.00501892,59.88,65.70817248,0,-0.051776567,0,0.023372858
202,-10,1.1,4,84.03361345,-260,-10640,-2048,2683,4098,8786,-2467.671932,-8048.888889,1116.364983,-1293.179218,516.870301,3018.397534,59.76059841,64.96374042,59.88,65.72814691,0.000598412,-0.041278499,0,0.019974433
202,-10,1.1,4,84.87394958,355.9331555,-11202.5,-1691.276856,2456.133297,4396.390625,8486.514619,-2626,-8092,974,-1396,594,3133,59.80285365,64.86248524,59.88,65.74410913,0.042255241,-0.101255173,0,0.015962215
202,-10,1.1,4,85.71428571,1248.126519,-12440,-885.7382829,2040.825355,4626.125,8172.673073,-2718,-7990,200,-1518,699,3192,59.82,64.851875,59.88,65.75502361,0.017146346,-0.010610243,0,0.010914487
202,-10,1.1,4,86.55462185,2209.256623,-13677.5,-28.33056832,1585.354735,4773.796875,7794.24499,-2833.680844,-7723.209096,-96.26245427,-1585.245528,773.122374,3319.45145,59.82,64.96398438,59.88,65.75985486,0,0.112109375,0,0.004831249
202,-10,1.1,4,87.39495798,3032,-14240,484,1238,4826,7301,-2973.505544,-7371.382326,-292.5110996,-1635.006913,833.1873453,3477.559058,59.85,64.97,59.88,65.76,0.03,0.006015625,0,0.000145136
202,-10,1.1,4,88.23529412,3762.418188,-13796.44444,680.2290967,989.6083758,4471.703704,6353.468341,-3152,-7196,-376,-1670,865,3555,59.88,64.96841375,59.87794239,65.76153423,0.03,-0.001586247,-0.002057613,0.001534228
202,-10,1.1,4,89.07563025,4533.281947,-12687.55556,850.9421326,744.5964988,3585.962963,4834.472337,-3482.013632,-7305.032014,-396.4546449,-1692.115964,874.4521889,3552.504,59.88,64.92914122,59.83555556,65.80015652,0,-0.039272533,-0.042386831,0.038622292
202,-10,1.1,4,89.91596639,5267.331643,-11246,991.6074244,521.5970459,2434.5,3027.219744,-3975.875336,-7605.576042,-412.1714755,-1705.89083,879.1707364,3546.552,59.88,64.88306835,59.82,65.85236794,0,-0.046072874,-0.015555556,0.052211416
202,-10,1.1,4,90.75630252,5887.30764,-9804.444444,1097.693289,339.2426939,1283.037037,1214.91832,-4497.330224,-8057.804063,-423.2609837,-1718.007713,882.5631895,3539.448,59.88,64.83880526,59.82,65.90752188,0,-0.04426309,0,0.055153947
202,-10,1.1,4,91.59663866,6315.950304,-8695.555556,1164.668042,216.1661196,397.2962963,-319.2241806,-4910.123408,-8621.888056,-429.8336612,-1735.149731,888.0370951,3533.496,59.88,64.78625,59.79,65.91,0,-0.052555256,-0.03,0.002478117
202,-10,1.1,4,92.43697479,6476,-8252,1188,171,43,-1292,-5078,-9258,-432,-1764,899,3531,59.88229595,64.76,59.76,65.91,0.00229595,-0.02625,-0.03,0
202,-10,1.1,4,93.27731092,6380.721022,-8489.928669,1161.065476,187.1865569,65.29080933,-1829.73581,-4058.479616,-10207.24681,-86.10835598,-1871.695214,1002.839044,3537.979245,59.92748219,64.76,59.76,65.91,0.045186241,0,0,0
202,-10,1.1,4,94.11764706,6117.042096,-9127.577503,1082.91435,230.5665295,125.0301783,-2264.267601,-2300,-11646,594,-2031,1162,3558,59.94,64.74967026,59.76,65.92032974,0.01251781,-0.010329737,0,0.010329737
202,-10,1.1,4,94.95798319,5718.200233,-10050.74074,957.5252941,293.3703704,211.5185185,-2620.65159,-351.5203841,-14662.46567,1720.108356,-2213.537811,1313.371769,3884.45629,59.94,64.69909017,59.76,65.97090983,0,-0.050580094,0,0.050580094
202,-10,1.1,4,95.79831933,5217.432444,-11145.21262,788.8769789,367.8285322,314.0562414,-2923.943998,858,-16860,2512,-2326,1402,4326,59.94,64.6573101,59.76,66.02114797,0,-0.041780066,0,0.050238144
202,-10,1.1,4,96.63865546,4647.97574,-12296.78738,580.9480755,446.1714678,421.9437586,-3199.201045,748.1330075,-16656.2963,2398.37037,-2296.814815,1384.37037,4581.66055,59.94067383,64.6158272,59.76,66.05,0.000673828,-0.041482901,0,0.028852025
202,-10,1.1,4,97.4789916,4043.067132,-13391.25926,337.7172549,520.6296296,524.4814815,-3471.478949,432.336735,-16147.03704,2114.296296,-2223.851852,1340.296296,4825.747727,59.98608398,64.57551784,59.76,66.05,0.045410156,-0.040309365,0,0
202,-10,1.1,4,98.31932773,3435.943632,-14314.4225,63.16318805,583.4334705,610.9698217,-3765.83393,-68.68175964,-15485,1745,-2129,1283,5042.693394,60,64.51408986,59.76,66.08479004,0.013916016,-0.061427979,0,0.034790039
202,-10,1.1,4,99.15966387,2859.842251,-14952.07133,-238.7354539,626.8134431,670.7091907,-4107.322207,-734.2154188,-14822.96296,1375.703704,-2034.148148,1225.703704,5216.929419,60,64.41295022,59.76,66.19831543,0,-0.101139637,0,0.113525391
202,-10,1.1,4,100,2348,-15190,-564,643,693,-4521,-1543.557185,-14313.7037,1091.62963,-1961.185185,1181.62963,5332.887666,60,64.2959152,59.76,66.2,0,-0.117035021,0,0.00168457
202,-10,1.1,1,0,1799.930443,-14130.24,-1213.101616,443.216,615.728,-5123.079759,-2476,-14110,978,-1932,1164,5375,59.99932617,64.19078104,59.76016195,66.20009712,-0.000673828,-0.105134164,0.00016195,9.71E-05
202,-10,1.1,1,0.925925926,1170.711749,-11603.12,-2275.599318,-33.192,431.464,-5896.289729,-4941.077476,-14301.33333,1164.122408,-1997.390505,1239.732519,5350.810555,59.95391602,64.10608945,59.77555556,66.21050972,-0.045410156,-0.084691581,0.015393605,0.010412603
202,-10,1.1,1,1.851851852,576.9278324,-8586.88,-3431.146212,-601.808,211.536,-6665.459819,-8484.983182,-14656.66667,1653.355926,-2131.669898,1439.687259,5273.065555,59.94,64.00371062,59.80196844,66.23377816,-0.013916016,-0.102378832,0.026412889,0.023268434
202,-10,1.1,1,2.777777778,135.1626108,-6059.76,-4359.395404,-1078.216,27.272,-7255.41994,-10292,-14848,2342,-2242,1723,5134,59.94,63.88117627,59.81936556,66.26374477,0,-0.122534354,0.017397112,0.029966612
202,-10,1.1,1,3.703703704,-38,-5000,-4740,-1278,-50,-7491,-8092,-13128,3764,-2296,2321,4188,59.94,63.78162473,59.79,66.30691629,0,-0.099551538,-0.029365556,0.043171517
202,-10,1.1,1,4.62962963,5596,-5406,-3420,-735,90,-7045,-4878,-11360,5054,-1973,2712,3301,59.94,63.70896167,59.76,66.35925187,0,-0.072663061,-0.03,0.052335583
202,-10,1.1,1,5.555555556,7214,-5922,-1634,-525,-84,-6573,-1980,-6990,6400,-1625,3396,1761,59.94,63.6658379,59.76,66.4032871,0,-0.043123767,0,0.044035225
202,-10,1.1,1,6.481481481,7354,-6716,202,-476,-336,-5584,-630,-5050,6870,-1260,3762,605,59.94,63.62594788,59.76,66.44329355,0,-0.039890029,0,0.040006458
202,-10,1.1,1,7.407407407,5672,-6961.607974,1167.40548,-481.8822285,-182.5,-5163.468668,-3538,5648,6266,233,2734,-614,59.94,63.58761777,59.76,66.48148319,0,-0.038330108,0,0.038189632
202,-10,1.1,2,8.333333333,3990,-7110,1600,-495,-29,-4822,-4112,11442,-1202,28,963,257,59.91510269,63.54236636,59.76,66.52604111,-0.02489731,-0.045251409,0,0.044557923
202,-10,1.1,2,9.259259259,4231.62963,-7210.768695,1171.729831,-529.4315938,-73.33333333,-4374.149649,-2284,8401.231551,-5087.006375,107.3704669,-23.66305671,8.27855518,59.87486263,63.52137463,59.76,66.58444075,-0.040240059,-0.02099173,0,0.058399643
202,-10,1.1,2,10.18518519,4680.37037,-7288.943322,293.6818848,-578.2157969,-155.6666667,-3888.62785,-456,4548,-6822,339,-474,-574,59.84957017,63.55906837,59.76,66.68078904,-0.025292459,0.037693742,0,0.096348286
202,-10,1.1,2,11.11111111,4922,-7440,-424,-603,-200,-3391,-1124,3406,-3618,1644,-359,-1868,59.82931893,63.6162963,59.76,66.7451435,-0.020251239,0.057227927,0,0.064354457
202,-10,1.1,2,12.03703704,4640,-8196,-770,-437,-117,-2882,-1050,2848,-1248,2025,167,-3186,59.82008698,63.64964911,59.76,66.7855716,-0.009231955,0.033352812,0,0.040428101
202,-10,1.1,2,12.96296296,4770,-7598,-716,-308,-90,-2601,86,1052,1860,2474,472,-4420,59.82,63.65,59.79264401,66.82911021,-8.70E-05,0.000350892,0.032644006,0.043538614
202,-10,1.1,2,13.88888889,4709.948507,-7645.8125,-585.4699632,-277.4118222,-104.0625,-2316.818889,780,344,2396,2637,494,-4995,59.82,63.65,59.82,66.88278766,0,0,0.027355994,0.053677453
202,-10,1.1,2,14.81481481,4549.696018,-7751,-383.0517657,-262.2648592,-135,-2028.775008,-640,-1112,270,3165,-26,-5648,59.82,63.65,59.82,66.96562834,0,0,0,0.082840682
202,-10,1.1,2,15.74074074,4319.095521,-7856.1875,-167.6076853,-248.4854666,-165.9375,-1766.343623,-1304,-1488,-1164,3512,-254,-6190,59.8196696,63.64812772,59.82,67.06519794,-0.000330402,-0.001872277,0,0.099569592
202,-10,1.1,2,16.66666667,4048,-7904,2,-222,-180,-1559,-1464.714107,-1815.651613,-1040.875,3902.530972,-432.233623,-6613.936324,59.81720391,63.6341555,59.82,67.16134866,-0.002465686,-0.01397222,0,0.096150719
202,-10,1.1,2,17.59259259,3485.587296,-7738,90.92445817,-136.2100814,-134,-1407.39733,-1549.608229,-2111.684387,-770,4321.524173,-598.0409982,-6981.719765,59.81272623,63.60878195,59.81877386,67.24415881,-0.004477686,-0.025373551,-0.001226139,0.082810154
202,-10,1.1,2,18.51851852,3030,-7572,208,-36,-88,-1293,-1621.198237,-2463.374967,-499.125,4692.005287,-720.3278743,-7343.143324,59.80670995,63.57468973,59.81464562,67.32191187,-0.006016274,-0.034092217,-0.004128244,0.077753056
202,-10,1.1,2,19.44444444,2990,-8154,696,18,-125,-1215,-1742,-2958,-376,4937,-768,-7748,59.7996285,63.53456152,59.80778308,67.39704296,-0.00708145,-0.040128216,-0.006862532,0.075131089
202,-10,1.1,2,20.37037037,2896,-7430,924,-9,-105,-1190,-1996,-3972,-470,5051,-423,-8236,59.79195529,63.49107997,59.79836952,67.47189845,-0.007673214,-0.043481548,-0.00941356,0.074855495
202,-10,1.1,2,21.2962963,2450,-7254,992,-85,-136,-1137,-1855.481481,-4993.561041,-604.9702312,5182.566396,-233.5856119,-8544.741712,59.78416372,63.44692776,59.7865882,67.54882472,-0.007791567,-0.044152215,-0.011781327,0.076926274
202,-10,1.1,2,22.22222222,2213.975938,-6855.897266,1227.55144,-184.8744266,-154.9302704,-1163.582278,-1594.518519,-6020.073462,-748.92956,5311.116531,-93.6261393,-8786.503032,59.77672721,63.40478754,59.77262236,67.63016815,-0.007436509,-0.042140215,-0.013965835,0.081343425
202,-10,1.1,2,23.14814815,2108,-6570,1434,-279,-173,-1221,-1454,-7052,-816,5369,-39,-8968,59.77011917,63.36734199,59.75488929,67.72073217,-0.006608038,-0.037445549,-0.017733076,0.090564018
202,-10,1.1,2,24.07407407,2296.105727,-7141,1466.004115,-336.5311031,-200.1574955,-1318.92774,-1826,-8247.071253,-748,5365.73891,-79.23453909,-9122.400868,59.76481302,63.33727377,59.70813455,67.84178718,-0.005306156,-0.030068217,-0.046754738,0.121055017
202,-10,1.1,2,25,2508,-7712,1478,-395,-228,-1453,-2198,-9136,-680,5358,-167,-9200,59.76128216,63.31726555,59.70140968,67.8534676,-0.003530862,-0.020008219,-0.006724871,0.011680413
202,-10,1.1,2,25.92592593,2540.697153,-7610.592048,1240.569642,-504.2628957,-249.6966355,-1607.799739,-2140.833819,-9497.589517,-731.9591837,5330.799538,-348.5816553,-9187.260731,59.76,63.31,59.7095029,67.81686205,-0.001282157,-0.007265554,0.008093225,-0.036605549
202,-10,1.1,2,26.85185185,2562,-7478,954,-603,-269,-1770,-1993.405248,-9759.301148,-865.9591837,5270.2208,-667.2586661,-9150.365701,59.77083245,63.33245619,59.72371659,67.75484171,0.010832449,0.022456193,0.014213688,-0.06202034
202,-10,1.1,2,27.77777778,2590.646731,-7418.651174,879.0016305,-646.9290234,-285.302782,-1911.592041,-1791.819242,-9954.058006,-1049.183673,5180.930846,-1069.114631,-9091.299079,59.79854197,63.39156976,59.74282854,67.67517539,0.027709525,0.05911357,0.01911195,-0.079666317
202,-10,1.1,2,28.7037037,2617.878921,-7373.770032,831.300085,-678.1352335,-300.4702033,-2046.676766,-1572.180758,-10114.78321,-1248.816327,5067.596731,-1500.233148,-9012.04503,59.83594684,63.4749582,59.76561655,67.58563191,0.037404867,0.083388432,0.022788012,-0.089543481
202,-10,1.1,2,29.62962963,2630,-7356,782,-706,-320,-2187,-1370.594752,-10274.39986,-1432.040816,4934.885514,-1906.697817,-8914.587723,59.87586532,63.57023898,59.79085843,67.49398008,0.039918474,0.095280781,0.025241873,-0.091651831
202,-10,1.1,2,30.55555556,2492.825055,-7493.919436,705.0672143,-730.0160462,-347.1571458,-2331.448745,-1223.166181,-10465.83109,-1566.040816,4787.464251,-2234.592234,-8800.911324,59.91111566,63.66502959,59.81733196,67.40798871,0.035250347,0.094790615,0.026473535,-0.085991367
202,-10,1.1,2,31.48148148,2210,-7850,658,-758,-391,-2496,-1166,-10722,-1618,4630,-2430,-8673,59.93451615,63.74694753,59.85667237,67.31273097,0.023400485,0.081917935,0.039340413,-0.095257747
202,-10,1.1,2,32.40740741,1788,-8978,1132,-815,-501,-2721,-1233.605324,-11113.32669,-1506.215743,4435.357519,-2537.727292,-8456.609672,59.93970763,63.80480947,59.91711311,67.19337321,0.005191479,0.057861939,0.060440735,-0.119357758
202,-10,1.1,2,33.33333333,1063.258877,-9450.422014,1441.311904,-918.8291855,-614.8898305,-2880.389444,-1420.004142,-11640.61587,-1217.930029,4177.227869,-2636.639379,-8084.196549,59.934815,63.84940644,59.98220102,67.07476073,-0.004892622,0.04459697,0.065087916,-0.118612481
202,-10,1.1,2,34.25925926,582,-9648,1590,-989,-679,-3035,-1700.570722,-12232.36756,-823.7434402,3861.517562,-2723.908498,-7567.79523,59.92472517,63.88875071,60.03529855,66.98204798,-0.010089837,0.03934427,0.053097529,-0.092712746
202,-10,1.1,2,35.18518519,1621.697981,-8455,473,-954.3242188,-644,-3258.446656,-2050.67933,-12817.08179,-394.2565598,3494.13311,-2796.706883,-6919.440316,59.91052143,63.92555865,60.05976813,66.94038943,-0.014203737,0.036807946,0.024469574,-0.041658553
202,-10,1.1,2,36.11111111,2850,-7262,-644,-901,-609,-3452,-2445.704234,-13323.25859,-0.069970845,3080.981024,-2852.206772,-6151.166406,59.89328711,63.96254665,60.06,66.98746094,-0.017234322,0.036987999,0.000231873,0.047071509
202,-10,1.1,2,37.03703704,3195.205168,-7279.491072,-631.7614349,-861.01,-615.4355049,-3558.03079,-2861.019701,-13679.39799,288.2157434,2627.967817,-2887.580399,-5275.008101,59.87108928,64.00404645,60.06,67.0010401,-0.022197833,0.041499803,0,0.01357916
202,-10,1.1,2,37.96296296,3472.885814,-7333.273217,-594.1643046,-819.58625,-633.6665147,-3642.090218,-3272,-13814,400,2141,-2900,-4303,59.82699973,64.05312502,60.06,66.82220843,-0.044089543,0.049078564,0,-0.178831671
202,-10,1.1,2,38.88888889,3677.763876,-7425.309826,-529.886457,-782.6575,-662.0797721,-3711.134251,-3746.73811,-13370.72738,223.1851852,1428.032691,-2780.656834,-2532.791147,59.82,64.06,60.07714635,66.79,-0.006999732,0.006874983,0.017146346,-0.032208427
202,-10,1.1,2,39.81481481,3804.561292,-7557.56429,-437.6057395,-756.1525,-699.0620196,-3772.118856,-4312.184573,-12398.56587,-105.1851852,561.2717928,-2509.313668,-138.085493,59.82,64.06,60.11940159,66.79,0,0,0.042255241,0
202,-10,1.1,2,40.74074074,3848,-7732,-316,-746,-743,-3832,-4882,-11434,-282,-57,-2216,1555,59.80904583,64.07785626,60.0844043,66.83746094,-0.01095417,0.017856259,-0.034997291,0.047460938
202,-10,1.1,2,41.66666667,3816.690574,-8679.334847,449.177242,-780,-840.7377737,-3881.324194,-5430,-10660,-26,-321,-1925,2205,59.78323399,64.12575991,60.06139745,66.8680878,-0.025811837,0.047903653,-0.023006851,0.030626861
202,-10,1.1,2,42.59259259,3752,-9856,1146,-814,-957,-3940,-5521.382241,-9121.961566,2044.309996,-173.03125,-1251.327598,2262.215562,59.76243092,64.18099736,60.08059771,66.83830266,-0.020803072,0.055237449,0.019200267,-0.029785142
202,-10,1.1,2,43.51851852,3686.82815,-10315.06063,859.7777778,-785.4814815,-1020.797371,-4110.273022,-5582.006436,-7003.410281,6074.664441,152.5,-267.7634206,2286.47824,59.76,64.22611024,60.10681025,66.78395834,-0.002430921,0.045112882,0.026212539,-0.054344319
202,-10,1.1,2,44.44444444,3585.720052,-10641.11587,328.2222222,-732.5185185,-1073.532298,-4348.089628,-5615.627414,-5128.153855,10004.18667,478.03125,619.9324673,2306.001799,59.76,64.27,60.12,66.72,0,0.043889758,0.013189749,-0.063958338
202,-10,1.1,2,45.37037037,3390,-11222,42,-704,-1159,-4485,-5626,-4320,11772,626,1006,2349,59.71898438,64.31434203,60.12,66.6227241,-0.041015625,0.044342027,0,-0.0972759
202,-10,1.1,2,46.2962963,1748,-13314,372,-714,-1402,-4504,-5214,-4752.296296,10713.33333,560.6697092,830,2649.776033,59.7,64.35880921,60.11242798,66.5452097,-0.018984375,0.044467187,-0.007572016,-0.077514395
202,-10,1.1,2,47.22222222,526.109282,-17631.61142,1942.560269,-758.2218595,-1629.381387,-4686.2534,-4184,-5833.037037,8066.666667,385.2541805,390,3306.140937,59.7,64.40401604,60.06757202,66.49589766,0,0.045206823,-0.044855967,-0.049312046
202,-10,1.1,2,48.14814815,-226,-20656,3262,-833,-1753,-4956,-2845,-7238,4626,130.6164296,-182,4141.570248,59.7,64.40389932,60.06,66.5153125,0,-0.000116713,-0.007572016,0.019414842
202,-10,1.1,2,49.07407407,-505.1110642,-18972.58375,2560.998543,-940.8323224,-1752.778651,-5198.757794,-1506,-8642.962963,1185.333333,-172.3805279,-754,4979.539504,59.7,64.37659042,60.06,66.57,0,-0.027308902,0,0.0546875
202,-10,1.1,3,50,-620,-15710,1126,-1051,-1752,-5338,-476,-9723.703704,-1461.333333,-492.8736763,-1194,5643.524242,59.7,64.34811281,60.06,66.49902365,0,-0.028477614,0,-0.070976347
202,-10,1.1,3,50.92592593,1612,-11652,-970,-1119,-1685,-5210,-64,-10156,-2520,-800,-1370,5957,59.7,64.34452045,60.05996122,66.38945792,0,-0.003592362,-3.88E-05,-0.109565732
202,-10,1.1,3,51.85185185,6478.958451,-12171,-1356.6171,-1036.552966,-1615.299491,-5487,-4361,-8116,1484,-1170.978079,-454.5,6025.844945,59.7,64.39513548,60.05926962,66.2717252,0,0.050615031,-0.000691607,-0.117732723
202,-10,1.1,3,52.77777778,9940,-12690,-1490,-885,-1576,-5764,-8658,-6076,5488,-1489,461,6055,59.67785874,64.4391289,60.05770672,66.13428425,-0.022141258,0.043993426,-0.001562892,-0.137440943
202,-10,1.1,3,53.7037037,9390.028783,-12490.97618,-416.6746612,-708.28234,-1762.165724,-5455.264469,-8062.6875,-6316.9375,4164.875,-1665.449144,370.0625,6040.781763,59.64,64.48,60.05526456,65.98338683,-0.037858742,0.040871096,-0.002442168,-0.150897425
202,-10,1.1,3,54.62962963,8050.724233,-11935.06347,1842.428455,-507.4837016,-2206.775893,-4709.417827,-6753,-6847,1254,-1814.121461,170,5999.501369,59.64,64.53115001,60.05193512,65.82528466,0,0.05115001,-0.003329435,-0.158102168
202,-10,1.1,3,55.55555556,6388,-11084,3846,-362,-2739,-3797,-5443.3125,-7377.0625,-1656.875,-1916.733048,-30.0625,5933.22029,59.64,64.55,60.04771043,65.66622949,0,0.01884999,-0.004224693,-0.159055174
202,-10,1.1,3,56.48148148,3368.717619,-8407.452282,5368.842327,-293.6182344,-3606.771893,-2398.835846,-4848,-7618,-2980,-1955,-121,5844,59.64,64.55,60.04258249,65.51247305,0,0,-0.005127943,-0.153756441
202,-10,1.1,3,57.40740741,1184,-4006,6194,-233,-4215,-1080,-5030.518519,-7501.782599,-1852.222222,-1806.444444,-72.22875817,5494.852252,59.64,64.5686592,60.0365433,65.37026708,0,0.0186592,-0.006039183,-0.142205969
202,-10,1.1,3,58.33333333,3673,3013.96715,4520.655286,-122.0415335,-3859.231983,-378.2832933,-5369.481481,-7246.009642,242.2222222,-1530.555556,28.54248366,4853.261884,59.64,64.6438672,60.02958489,65.24586332,0,0.075208,-0.006958415,-0.12440376
202,-10,1.1,4,59.25925926,6162,7820,948,-49,-3081,-50,-5552,-6990,1370,-1382,113,4228,59.64,64.7459552,60.02169925,65.14551351,0,0.102088,-0.007885639,-0.100349812
202,-10,1.1,4,60.18518519,2182,-118,-4974,-571,-1691,-224,-5301.893293,-6727.57791,1118.259126,-1439,155.4038122,3700.615398,59.64,64.8413232,60.0128784,65.07546938,0,0.095368,-0.008820853,-0.070044126
202,-10,1.1,4,61.11111111,1086,-1232,-5424,433,-467,-319,-4832,-6570,512,-1496,197,3239,59.64,64.8963712,60.00311434,65.04198268,0,0.055048,-0.009764059,-0.033486702
202,-10,1.1,4,62.03703704,35.50576435,-1614.406767,-3693.703704,1101.4131,213.2211831,543.943015,-4298,-8350,-972,-1449,261,2915,59.64,64.89253632,59.98151935,65.05622562,0,-0.00383488,-0.021594991,0.014242939
202,-10,1.1,4,62.96296296,-916.9137845,-1861.981161,-480.2962963,1631.687276,719.0342514,2302.219363,-4325.899514,-8102.054054,-1777.439567,-1246.530543,195.9274383,2659.216782,59.64,64.86245312,59.93306781,65.11318084,0,-0.0300832,-0.048451536,0.056955227
202,-10,1.1,4,63.88888889,-1332,-1950,1250,1930,1136,3710,-4412,-7822,-2142,-956,118,2405,59.64,64.82161792,59.88951897,65.16779865,0,-0.0408352,-0.043548844,0.054617803
202,-10,1.1,4,64.81481481,-837.9151609,-1750.37037,911.0653514,2039.252815,1541.51381,4386.52069,-5112,-7782,-1072,-704,101,2088,59.64,64.78347072,59.88229595,65.17732139,0,-0.0381472,-0.007223016,0.009522745
202,-10,1.1,4,65.74074074,177.5030115,-1379.62963,197.0195917,2107.133747,1893.652718,4909.759314,-4472,-7452,306,-626,90,1830,59.64,64.76145152,59.90214126,65.15416853,0,-0.0220192,0.019845308,-0.02315286
202,-10,1.1,4,66.66666667,1014,-1180,-438,2197,2099,5472,-3630,-7766,1566,-671,116,1582,59.64,64.80200422,59.92748219,65.12460411,0,0.0405527,0.025340932,-0.029564421
202,-10,1.1,4,67.59259259,1537.404556,-1186.320896,-924.0318537,2351.413921,2187.203141,6157.809073,-4223,-7617,1143.345906,-700.0717391,95,1371.525198,59.64,64.9,59.94,65.11,0,0.09799578,0.01251781,-0.014604112
202,-10,1.1,4,68.51851852,1804,-1208,-1188,2558,2225,6887,-4816,-7468,416,-714,74,1201,59.59898438,64.94251093,59.93352311,65.120161,-0.041015625,0.042510934,-0.006476893,0.010161002
202,-10,1.1,4,69.44444444,1794,-1894,-926,2842,1901,7641,-4542,-7854,-224,-697,139,1087,59.58,64.99549751,59.91817236,65.14663005,-0.018984375,0.052986577,-0.015350747,0.026469052
202,-10,1.1,4,70.37037037,1731.233341,-2646.435083,-883.044688,2982.362372,1462.709309,8342.692154,-3580,-7966,-104,-616,193,982,59.58,65.07993118,59.90006766,65.18338622,0,0.084433669,-0.018104701,0.036756171
202,-10,1.1,4,71.2962963,1613.26297,-3440.26336,-854.5952782,3090.793698,947.3479849,9029.372809,-3110,-7646,-82,-618,160,975,59.58,65.19921981,59.8853289,65.22440858,0,0.119288635,-0.014738757,0.04102236
202,-10,1.1,4,72.22222222,1499.161114,-4210.459957,-838.8482293,3168.578175,462.5626679,9616.61706,-2686.863921,-7714.444444,14.32593083,-627.838731,169.6,994.0418079,59.58067383,65.34380697,59.88,65.26404958,0.000673828,0.144587155,-0.005328902,0.039640992
202,-10,1.1,4,73.14814815,1448,-4892,-834,3217,116,10020,-2292.389259,-7841.555556,184.4169712,-647.5598149,189.8666667,1042.416949,59.62608398,65.49138871,59.88,65.3177533,0.045410156,0.14758174,0,0.053703725
202,-10,1.1,4,74.07407407,1576,-5442,-1096,3241,-69,10230,-1940,-7910,352,-672,208,1107,59.64,65.56287041,59.88,65.33,0.013916016,0.071481701,0,0.012246699
202,-10,1.1,4,75,1471.700516,-5959.191957,-960,3213.598802,-170.9809891,10501.44892,-1575.908787,-7823.407407,515.0480093,-703.3766707,218.3230598,1218.639215,59.64,65.59457048,59.88,65.33,0,0.031700072,0,0
202,-10,1.1,4,75.92592593,1248,-6564,-824,3153,-261,10806,-1242.176616,-7662.592593,675.7151413,-745.5897957,227.2238975,1386.514965,59.66000921,65.71305984,59.89813817,65.34865827,0.020009206,0.118489354,0.018138174,0.018658274
202,-10,1.1,4,76.85185185,872,-7526,-906,3041,-379,11126,-1096,-7576,764,-796,240,1565,59.70256101,65.82940618,59.94382054,65.40594663,0.042551805,0.116346347,0.045682363,0.05728836
202,-10,1.1,4,77.77777778,895,-8950.644617,-1464.808316,3002.171486,-267.0138099,11168.844,-1212.108893,-7605,788.1899808,-862.0318486,264.9845817,1742.42945,59.7280288,65.77296296,59.98783788,65.48529859,0.025467787,-0.05644322,0.044017341,0.07935196
202,-10,1.1,4,78.7037037,918,-10554,-1958,2966,-30,11194,-1448,-7634,798,-941,303,1936,59.74905317,65.6761157,60,65.57605399,0.021024373,-0.09684726,0.012162122,0.090755398
202,-10,1.1,4,79.62962963,764.0367185,-12427.363,-860,2881.066202,327.8163949,11232.53876,-1775.300305,-7267,630.470124,-1029.292972,379.1353093,2153.81655,59.75965607,65.61232629,60,65.66864281,0.010602896,-0.063789409,0,0.092588822
202,-10,1.1,4,80.55555556,516,-13548,238,2771,852,11255,-2198,-6900,456,-1117,434,2374,59.73264401,65.61,60,65.76583927,-0.027012062,-0.002326293,0,0.097196454
202,-10,1.1,4,81.48148148,296.0087968,-13268.51852,-303.8518519,2671.871981,1687.094236,11054.73175,-2686,-6988,448,-1189,348,2570,59.7,65.60826157,60,65.86902103,-0.032644006,-0.001738426,0,0.103181766
202,-10,1.1,4,82.40740741,84.55995395,-12749.48148,-1310.148148,2566.587167,2747.884253,10593.35239,-2525.259259,-6963.111111,534.0740741,-1282.776444,368.4398552,2786.996216,59.7,65.47616649,60,65.97956579,0,-0.132095083,0,0.110544759
202,-10,1.1,4,83.33333333,-10,-12470,-1852,2430,3616,10080,-2226.740741,-6916.888889,693.9259259,-1384.951854,419.7685993,3006.887793,59.709375,65.37777653,60,66.11141502,0.009375,-0.098389958,0,0.131849227
202,-10,1.1,4,84.25925926,676.8724903,-12590.682,-1509.375672,2195.00999,4271.402338,9567.092758,-2066,-6892,780,-1464,487,3180,59.75742188,65.33809933,60,66.26317577,0.048046875,-0.039677204,0,0.151760746
202,-10,1.1,4,85.18518519,2135.300536,-12823.80844,-750.7513448,1884.655665,4826.145613,8976.380775,-2613.037037,-7195.909177,603.7037037,-1510.822126,593.9630741,3311.545569,59.76,65.30102103,59.97264401,66.27,0.002578125,-0.037078299,-0.027355994,0.006824234
202,-10,1.1,4,86.11111111,3462,-12976,20,1609,5060,8321,-3628.962963,-7797.596132,276.2962963,-1547.21596,750.5790472,3420.314953,59.76039703,65.25263197,59.94059841,66.27,0.00039703,-0.048389058,-0.032045593,0
202,-10,1.1,4,87.03703704,4339.37991,-13016.81608,839.5476314,1414.837755,4826.21881,7610.141767,-4176,-8232,100,-1588,921,3477,59.79371591,65.11065511,59.98285365,66.27,0.033318879,-0.141976861,0.042255241,0
202,-10,1.1,4,87.96296296,5132,-13034,1338,1229,4360,6723,-4032.293805,-8358.223214,352,-1631.572737,1144.610727,3489.863632,59.83755932,65.01765881,59.99253851,66.27,0.043843415,-0.092996303,0.009684855,0
202,-10,1.1,4,88.88888889,5926.094058,-12076.53152,1300.344395,998.7263349,3733.190912,5358.883944,-3654.365388,-8437.507293,820,-1681.199711,1386.638697,3496.58938,59.87821757,64.97819237,59.94648487,66.27,0.04065825,-0.039466439,-0.046053637,0
202,-10,1.1,4,89.81481481,6632,-10906,1200,784,2976,3778,-3122,-8608,1072,-1759,1500,3512,59.88,64.92949255,59.92306777,66.29217213,0.001782427,-0.048699814,-0.023417107,0.022172135
202,-10,1.1,4,90.74074074,7168,-10618,838,636,2221,2311,-2020,-9798,-1186,-1970,1277,3634,59.88,64.87443194,59.90752114,66.3551991,0,-0.05506061,-0.015546621,0.063026964
202,-10,1.1,4,91.66666667,7726,-9914,926,390,1106,266,-2058.336487,-9074,-1873.910095,-1944.662437,1180.012328,3846.915741,59.88,64.83589406,59.89101927,66.41071291,0,-0.038537881,-0.016501872,0.055513816
202,-10,1.1,4,92.59259259,6109.314803,-15839.11111,-761.7777778,-384.0014586,-167.3398429,-169.5005138,-2178,-8350,-2138,-1903,1139,4066,59.88,64.83,59.86129165,66.42,0,-0.005894063,-0.029727625,0.009287086
202,-10,1.1,4,93.51851852,2729.074051,-26842.88889,-3896.222222,-1459.389618,-1418.504575,-402.9254706,-3242,-8808,-1832,-1871,1157,4203,59.88,64.83,59.82178007,66.42,0,0,-0.039511577,0
202,-10,1.1,4,94.44444444,-210,-32768,-5584,-2003,-2064,-661,-2579.789701,-10661.52934,-1312.459379,-1903.432866,1269.01803,4321.303736,59.88,64.79808467,59.82,66.38808467,0,-0.031915327,-0.001780071,-0.031915327
202,-10,1.1,4,95.37037037,-1628.661845,-25452.22222,-3368.888889,-1928.622636,-2191.813055,-957.9185947,-1305.579402,-13948.55838,-551.9784881,-1984.087954,1447.675682,4440.258882,59.88008698,64.76,59.82,66.35,8.70E-05,-0.038084673,0,-0.038084673
202,-10,1.1,4,96.2962963,-2782.712614,-11865.77778,744.8888889,-1748.467493,-2273.962083,-1286.187617,-488,-17372,478,-2088,1541,4619,59.88931893,64.76,59.82,66.35,0.009231955,0,0,0
202,-10,1.1,4,97.22222222,-4970,-4550,2960,-1527,-2303,-1840,-288.7365862,-21400.82139,2943.561599,-2300.304692,1385.801622,5197.35745,59.90957017,64.76,59.81628517,66.35433397,0.020251239,0,-0.003714834,0.004333973
202,-10,1.1,4,98.14814815,-15346,-10524,-9308,-1221,-1414,-3739,-206,-23900,4822,-2459,1166,5671,59.93486263,64.76,59.79407964,66.38024042,0.025292459,0,-0.022205526,0.025906447
202,-10,1.1,4,99.07407407,-7987.484063,-10953.3695,-7429.706029,-697.1273179,374.3041487,-4982.773602,-449.7591888,-21677.54894,3913.668206,-2379.407407,1034.426745,5684.542955,59.97510269,64.64170213,59.76886885,66.409653,0.040240059,-0.118297872,-0.025210786,0.029412583
202,-10,1.1,4,100,1862,-11248,-3734,-94,1618,-5835,-1153.518378,-17030.65344,2011.11419,-2231.592593,925.4355949,5691.475361,60,64.45915168,59.76,66.42,0.02489731,-0.182550452,-0.008868854,0.010346996
202,-10,1.1,1,0,6613.484063,-11852.78858,2398.706029,564.623792,632.7753289,-6420.576663,-2276,-12990,348,-2152,880,5698,60,64.37668001,59.76,66.42,0,-0.08247167,0,0
202,-10,1.1,1,0.952380952,8874,-12742,6714,952,-449,-6700,-6044,-10676,-618,-2166,1509,5706,60,64.3209322,59.76,66.4274375,0,-0.055747804,0,0.0074375
202,-10,1.1,1,1.904761905,8734.764194,-14810.12936,4815.11775,-227,-603.7753289,-6590.5,-8634,-13036,-146,-2275,1908,6229,60,64.28077468,59.76,66.47984635,0,-0.040157524,0,0.052408854
202,-10,1.1,1,2.857142857,8392,-16350,1786,-1406,-662,-6481,-8932.191494,-14597.7413,1247.304209,-2105.981679,2279.746564,5840.693617,60,64.20609266,59.76,66.53933333,0,-0.074682018,0,0.059486979
202,-10,1.1,1,3.80952381,6981.235806,-10840,-634.0934875,-1311.194742,-374.5,-6644,-9028,-15352,3238,-1784,2692,5030,60,64.09543094,59.76,66.57,0,-0.110661714,0,0.030666667
202,-10,1.1,1,4.761904762,5774,-5330,-2390,-1115,-87,-6807,-6602.888889,-12772.96011,5773.276905,-1354.676923,3396.794969,3455.659487,60,63.97984198,59.76,66.57,0,-0.115588967,0,0
202,-10,1.1,1,5.714285714,6178,-7034,-3036,-819,-117,-6223,-2099.111111,-7363.698006,8502.305119,-845.5272109,4206.119707,1386.724177,59.98748219,63.87825448,59.76,66.57864078,-0.01251781,-0.101587494,0,0.008640775
202,-10,1.1,1,6.666666667,5248,-7581.154658,-807.8463667,-601.0953035,-116.322335,-5586.884287,326,-2616,9778,-507,4593,270,59.94229595,63.79347911,59.76,66.62837639,-0.045186241,-0.084775375,0,0.049735612
202,-10,1.1,1,7.619047619,4318,-7794,1626,-492,-114,-5077,-29.18518519,880.5128211,5018.518519,-394.6361587,3324.156556,170.7692296,59.94,63.79,59.76,66.70830198,-0.00229595,-0.003479108,0,0.079925589
202,-10,1.1,2,8.571428571,5332,-6920,1874,-583,-42,-4834,-688.8148148,3966.145299,-3820.518519,-324.7609277,876.2020011,121.5495482,59.93964849,63.78774755,59.76,66.80860991,-0.000351508,-0.002252447,0,0.10030793
202,-10,1.1,2,9.523809524,5238.245821,-7242,1210.953099,-708.4230019,-78.03703704,-4359.538581,-1044,5294,-8580,-189,-713,20,59.92886843,63.72355244,59.76,66.90266894,-0.010780065,-0.064195117,0,0.094059032
202,-10,1.1,2,10.47619048,4997.824975,-7840,-154.3160236,-840.0448343,-144.962963,-3742.083882,-11,4646.748901,-6699.215047,806.069051,-1126.634459,-613.2374497,59.90770354,63.61587076,59.76,66.96765509,-0.021164887,-0.107681678,0,0.064986156
202,-10,1.1,2,11.42857143,4672,-8162,-1286,-901,-181,-3250,1022,3428,-3300,2035,-1300,-1821,59.88249845,63.52570467,59.76,67.00942143,-0.025205088,-0.090166089,0,0.041766331
202,-10,1.1,2,12.38095238,4076,-8062,-1854,-627,-152,-2979,116,2034,152,2546,-758,-3805,59.84240356,63.48057693,59.76,67.04843307,-0.040094892,-0.045127736,0,0.039011649
202,-10,1.1,2,13.33333333,3894,-7748,-2016,-296,-116,-2623,934,1040,2672,2710,-568,-4589,59.82016195,63.44154775,59.76,67.1040911,-0.02224161,-0.039029183,0,0.055658029
202,-10,1.1,2,14.28571429,3717.03849,-7748,-1894.239167,-264.6496007,-116.1362083,-2340.239891,530.1343263,32.49954872,1636.112223,3008.201815,-667.5618115,-5386.925796,59.82522915,63.39347812,59.76,67.19929603,0.005067201,-0.04806963,0,0.095204929
202,-10,1.1,2,15.23809524,3531.407913,-7748,-1575.627154,-240.4475747,-116.5628713,-2057.767422,-261.7313474,-931.0897167,-386.8866647,3413.012123,-875.123623,-6157.27154,59.83555556,63.33984397,59.76,67.26643427,0.010326405,-0.053634153,0,0.067138234
202,-10,1.1,2,16.19047619,3347.416297,-7748,-1130.169693,-222.5464064,-117.3070459,-1791.33346,-812,-1584,-1770,3832,-1054,-6719,59.84863678,63.28625817,59.76,67.31361375,0.013081225,-0.053585796,0,0.047179484
202,-10,1.1,2,17.14285714,3175.371669,-7748,-627.8725159,-210.0985803,-118.3957891,-1556.688871,-964,-1880,-2126,4244,-1154,-7021,59.86196844,63.23833361,59.77095417,67.3993844,0.013331664,-0.047924558,0.01095417,0.085770649
202,-10,1.1,2,18.0952381,3025.582058,-7748,-138.7413537,-202.2565809,-119.8561578,-1369.58452,-1586,-1646,-1542,4715,-1169,-7497,59.87304616,63.20168317,59.79676601,67.51914765,0.011077719,-0.03665044,0.025811837,0.119763246
202,-10,1.1,2,19.04761905,2908.355493,-7748,267.2180621,-198.1728926,-121.7152091,-1245.771274,-1786.115457,-1895.778537,-1039.443609,4900.752226,-1059.322688,-7940.94514,59.87936556,63.18191973,59.81756908,67.64983377,0.006319392,-0.019763441,0.020803072,0.130686124
202,-10,1.1,2,20,2834,-7748,520,-197,-124,-1201,-1864,-2452,-774,5014,-836,-8357,59.88,63.19305905,59.82,67.77717448,0.000634444,0.011139322,0.002430921,0.127340715
202,-10,1.1,2,20.95238095,2801.128029,-7628.740741,670.3813134,-270.6387742,-145.297354,-1207.674074,-1745.505274,-3576.636331,-837.4736842,5091.181759,-476.616583,-8768.851287,59.88,63.24156793,59.82,67.90683025,0,0.048508878,0,0.129655769
202,-10,1.1,2,21.9047619,2779.467579,-7407.259259,789.52399,-415.1664373,-184.0346994,-1226.125926,-1542,-5010,-918,5155,-120,-9100,59.88,63.27955672,59.82,68.01905216,0,0.037988788,0,0.11222191
202,-10,1.1,2,22.85714286,2736,-7288,838,-516,-210,-1254,-1364,-6204,-942,5223,50,-9284,59.87742188,63.31919171,59.82,68.10225345,-0.002578125,0.039634988,0,0.083201284
202,-10,1.1,2,23.80952381,2224.107488,-7426,675,-543.2439916,-216.4057213,-1334.696924,-1168.382591,-7361.315074,-862,5347.623977,15.82790927,-9476.927565,59.829375,63.37209135,59.82,68.14817831,-0.048046875,0.052899639,0,0.045924864
202,-10,1.1,2,24.76190476,1680,-7564,512,-569,-222,-1466,-1056,-8302,-782,5432,-61,-9586,59.82,63.38,59.78570731,68.22885594,-0.009375,0.007908654,-0.034292693,0.08067763
202,-10,1.1,2,25.71428571,1573.548173,-7543,541.1818182,-644.4540541,-235.4714286,-1637.388754,-1122.352,-8945.604116,-799.1717926,5404.677591,-216.4549449,-9580.963519,59.82,63.38,59.70119682,68.31885637,0,0,-0.084510482,0.090000427
202,-10,1.1,2,26.66666667,1532,-7522,608,-701,-245,-1823,-1280.576,-9497.972956,-846.4753779,5331.472772,-485.1108701,-9567.570556,59.82,63.34191533,59.7,68.32,0,-0.038084673,-0.001196825,0.001143633
202,-10,1.1,2,27.61904762,1690,-7614,746,-694,-229,-1973,-1469.424,-9966.339737,-917.5930668,5225.529158,-826.339323,-9548.395834,59.82229595,63.31803582,59.70177112,68.31839331,0.00229595,-0.023879503,0.001771117,-0.00160669
202,-10,1.1,2,28.57142857,1760.480126,-7694.929204,1005.223508,-726.6261468,-252.3506494,-2086.736167,-1627.648,-10357.93768,-1006.20717,5099.990362,-1199.511851,-9526.014075,59.86748219,63.47618767,59.7411842,68.27746713,0.045186241,0.158151842,0.039413079,-0.040926185
202,-10,1.1,2,29.52380952,1826,-7738,1182,-794,-293,-2218,-1694,-10680,-1106,4968,-1564,-9503,59.88,63.52,59.77132582,68.22281866,0.01251781,0.043812335,0.030141628,-0.05464847
202,-10,1.1,2,30.47619048,1946,-7184,834,-895,-330,-2470,-1478,-10912,-1272,4791,-1948,-9474,59.88,63.52,59.78877336,68.15872757,0,0,0.017447536,-0.064091085
202,-10,1.1,2,31.42857143,2018.197802,-7816,878,-868,-391.6723332,-2734.169526,-1584,-11270,-1524,4410,-2441,-9405,59.9155957,63.57900833,59.80523606,68.07825985,0.035595703,0.059008333,0.0164627,-0.080467724
202,-10,1.1,2,32.38095238,2066,-8448,922,-841,-459,-3000,-1757.498954,-11509.46486,-1480.221649,4055.949499,-2926.41425,-9174.612251,59.94,63.67565446,59.82784585,67.97483586,0.024404297,0.096646127,0.022609795,-0.10342399
202,-10,1.1,2,33.33333333,2085.967446,-7625.767123,711.6757951,-887.3125,-513.0117395,-3295.766779,-2050,-11806,-1410,3708,-3273,-8874,59.94,63.76271977,59.86011759,67.81587897,0,0.08706531,0.032271733,-0.158956885
202,-10,1.1,2,34.28571429,2114,-6582,266,-937,-561,-3514,-2802,-12610,-1360,3350,-3395,-8646,59.94,63.82548879,59.89795205,67.61908889,0,0.062769022,0.037834462,-0.196790082
202,-10,1.1,2,35.23809524,2536,-6270,-456,-941,-602,-3586,-2662,-13788,-1676,2961,-3756,-8086,59.94,63.88143761,59.93632627,67.41888333,0,0.055948818,0.038374226,-0.200205564
202,-10,1.1,2,36.19047619,2955.930417,-6741.276967,-227.3333333,-901.5925926,-692.3361184,-3663.097625,-2314,-14126,-1588,2823,-4062,-7535,59.94,63.92055724,59.97382633,67.21080341,0,0.039119625,0.037500052,-0.208079914
202,-10,1.1,2,37.14285714,3342.409653,-7712.109489,197.3333333,-828.4074074,-813.0958096,-3742.330686,-2827,-13524,-776.6976579,2571.714442,-4163.289248,-6578.941648,59.93505394,63.93,60.01234688,67.05287137,-0.004946061,0.009442764,0.038520553,-0.157932045
202,-10,1.1,2,38.0952381,3512,-8518,426,-789,-902,-3818,-3340,-12922,-38,2198,-4203,-5334,59.8884022,63.93,60.05421578,66.95224563,-0.04665174,0,0.041868899,-0.100625742
202,-10,1.1,2,39.04761905,3186.888889,-8909.670757,213.3735622,-842.9259259,-940.2526284,-3876.315579,-2982.1875,-15205.125,-432.375,1457.799613,-3738.9375,-3726.319239,59.88,63.94497703,60.06,66.98746094,-0.008402198,0.014977028,0.005784222,0.035215312
202,-10,1.1,2,40,2583.111111,-9218.283526,-189.4750978,-943.0740741,-967.2496465,-3931.528239,-2195,-20228,-1300,386.2941001,-2718,-1789.770688,59.88,63.99,60.06,67.09,0,0.045022972,0,0.102539063
202,-10,1.1,2,40.95238095,2258,-9650,-430,-997,-1008,-4020,-1407.8125,-25250.875,-2167.625,-578.1084625,-1697.0625,3.66320712,59.87600481,64.01425088,60.09497942,66.9791221,-0.003995193,0.024250875,0.034979424,-0.110877898
202,-10,1.1,2,41.9047619,2492,-10514,-456,-952,-1104,-4269,-1050,-27534,-2562,-997,-1233,1182,59.86494694,64.0321935,60.12,66.85578419,-0.011057866,0.017942623,0.025020576,-0.123337912
202,-10,1.1,2,42.85714286,2748,-11064,218,-915,-1297,-4467,-5700,-18298,2028,-980,-2104,1701,59.84821797,64.04710293,60.12,66.79722083,-0.016728968,0.014909436,0,-0.058563363
202,-10,1.1,2,43.80952381,1570,-13322,874,-1041,-1506,-4865,-9588,-11606,5288,-11,-1652,3630,59.82720947,64.06225425,60.12,66.86277344,-0.021008499,0.015151314,0,0.065552609
202,-10,1.1,2,44.76190476,1523.129362,-14867.25631,1303.072575,-1036.15625,-1543.101403,-5031.152239,-6905.621506,-13813,8415.225293,404.1969258,880.3358846,2947,59.80331301,64.08092251,60.12,67.02,-0.023896461,0.018668258,0,0.157226562
202,-10,1.1,2,45.71428571,1508.244351,-16153.50359,1657.277967,-1025.5,-1564.770408,-5136.495124,-2356,-16020,10130,579,3060,2264,59.77792016,64.10638277,60.08214126,67.02,-0.025392851,0.025460266,-0.037858742,0
202,-10,1.1,2,46.66666667,1493.737166,-17270.49907,1951.344376,-1014.84375,-1579.054209,-5232.090448,2438.621506,-8308,1095,-914,2637.887859,3101.128484,59.74988409,64.14923106,60.06,67.01666068,-0.028036072,0.042848285,-0.022141258,-0.003339319
202,-10,1.1,2,47.61904762,1448,-18308,2200,-1010,-1594,-5369,5366,-596,-7940,-2407,1756,4457,59.70657341,64.25311523,60.06,66.96667579,-0.043310682,0.103884173,0,-0.049984894
202,-10,1.1,2,48.57142857,694,-19228,2392,-1092,-1610,-5604,5176.082421,-5285,-7749.894798,-2149.040612,120.2773709,5508.699101,59.7,64.27,60.06,66.88244926,-0.006573408,0.01688477,0,-0.084226522
202,-10,1.1,3,49.52380952,-584,-15724,1596,-1105,-1586,-5397,4544,-9974,-7132,-1620,-1363,6426,59.7,64.27,60.06,66.79728567,0,0,0,-0.085163592
202,-10,1.1,3,50.47619048,1138,-13236,802,-1126,-1794,-5420,-6696,-9582,956,-843,-1777,7080,59.7,64.27,60.0653289,66.72792106,0,0,0.005328902,-0.069364608
202,-10,1.1,3,51.42857143,5836.653286,-13795,31.88841097,-1141.9375,-1757.5,-5752.291361,-6618.666667,-9028.817055,669.037037,-925,-1663.350147,7034.495632,59.69446289,64.27452045,60.08006766,66.66052095,-0.005537109,0.004520447,0.014738757,-0.067400112
202,-10,1.1,3,52.38095238,9374,-14354,-392,-1150,-1721,-6065,-6425.333333,-8326.32583,-48.37037037,-1130,-1375.098248,6906.697133,59.64553711,64.32513548,60.09817236,66.59001824,-0.048925781,0.050615031,0.018104701,-0.070502708
202,-10,1.1,3,53.33333333,8855.62963,-12738.88889,178.8148148,-1033.851852,-1883.814815,-5559.296296,-6174,-7585.962419,-981,-1396.5,-991.2907927,6709.676413,59.64,64.3691289,60.11352311,66.51148668,-0.005537109,0.043993426,0.015350747,-0.078531564
202,-10,1.1,3,54.28571429,7559.703704,-8701.111111,1605.851852,-743.4814815,-2290.851852,-4295.037037,-5922.666667,-6919.162915,-1913.62963,-1663,-590.9742729,6456.505378,59.64,64.41,60.12,66.42,0,0.040871096,0.006476893,-0.091486681
202,-10,1.1,3,55.23809524,5875,-3452,3461,-366,-2820,-2651.5,-5729.333333,-6437.363411,-2631.037037,-1868,-253.1951785,6160.255938,59.60214126,64.4510437,60.12,66.30609022,-0.037858742,0.041043701,0,-0.113909777
202,-10,1.1,3,56.19047619,4190.296296,1797.111111,5316.148148,11.48148148,-3349.148148,-1007.962963,-5652,-6252,-2918,-1950,-57,5834,59.58,64.49212967,60.12,66.1424387,-0.022141258,0.041085967,0,-0.16365152
202,-10,1.1,3,57.14285714,2894.37037,5834.888889,6743.185185,301.8518519,-3756.185185,256.2962963,-5878,-6292.441568,-2178.871514,-1664.593421,24.75977105,5280.680413,59.58,64.52950779,60.12,65.88332495,0,0.03737812,0,-0.259113754
202,-10,1.1,4,58.0952381,2376,7450,7314,418,-3919,762,-6104,-6398,-984,-1324,78,4621,59.58,64.56911791,60.10101563,65.48006101,0,0.039610126,-0.018984375,-0.403263942
202,-10,1.1,4,59.04761905,2681,4628,129,-101.5,-2406.780754,287.5,-5255,-7028.300934,105.8715145,-1249.71853,119.0038265,4083.410836,59.58,64.62,60.06,65.11,0,0.050882087,-0.041015625,-0.370061006
202,-10,1.1,4,60,2986,1806,-7056,-621,-252,-187,-4406,-7604,740,-1190,139,3616,59.58,64.71135864,60.06,65.15785156,0,0.091358636,0,0.047851563
202,-10,1.1,4,60.95238095,222,2224,-4492,885,785,422,-4572.962963,-7615.874815,233.4074074,-1097.812639,129.4074074,3255.877997,59.58,64.77911241,60.05242798,65.18,0,0.067753776,-0.007572016,0.022148438
202,-10,1.1,4,61.9047619,132,270,-2196,1541,1153,1675,-4883.037037,-7620.396301,-707.4074074,-988.2349248,111.5925926,2943.489467,59.58,64.81494177,60.00757202,65.18,0,0.03582936,-0.044855967,0
202,-10,1.1,4,62.85714286,-299.282516,-826.4179578,-216.3358409,2085.889699,1596.74359,3157.636221,-5050,-7634,-1214,-868,102,2603,59.58,64.85565797,60,65.11355469,0,0.040716202,-0.007572016,-0.066445313
202,-10,1.1,4,63.80952381,-662,-1328,830,2439,1989,4381,-4614,-8512,-1212,-730,128,2186,59.58,64.9,60,64.97,0,0.044342027,0,-0.143554688
202,-10,1.1,4,64.76190476,-426.4883807,-1040,735.2060341,2548.30556,2277.422047,4971.849476,-4586,-7618,-756,-659,81,2055,59.58,64.95400391,59.95898438,65.05253022,0,0.054003906,-0.041015625,0.082530224
202,-10,1.1,4,65.71428571,24,-752,524,2635,2423,5471,-4642,-7781.549255,5.027314722,-593.3713975,89.28651685,1867.195422,59.58,64.963161,59.94,65.13294933,0,0.009157095,-0.018984375,0.080419109
202,-10,1.1,4,66.66666667,685.9052693,-834.2026555,98.2306373,2768.34763,2408.58419,6118.12352,-4698,-7960,506,-541,106,1655,59.58,64.91414818,59.94,65.17668003,0,-0.049012823,0,0.043730695
202,-10,1.1,4,67.61904762,1464.730412,-1058.627533,-556.7670788,2921.69798,2367.057269,6810.170545,-4465.836913,-7985.171695,337.3371792,-511.1733446,135.2684145,1403.034327,59.58,64.86419499,59.94,65.18,0,-0.049953185,0,0.003319972
202,-10,1.1,4,68.57142857,1840,-1392,-1206,3072,2301,7454,-3944.784936,-8000.696959,5.118802776,-488.6352977,171.9675406,1148.294941,59.58,64.83,59.94,65.18,0,-0.034194993,0,0
202,-10,1.1,4,69.52380952,1322,-2224,-1768,3210,2082,8000,-3398,-8006,-230,-458,190,1032,59.58,64.95708378,59.97785874,65.14611038,0,0.127083784,0.037858742,-0.033889618
202,-10,1.1,4,70.47619048,1496,-3994,-2072,3430,1648,8960,-2894,-7748,-300,-400,156,1044,59.58,65.18679104,59.99446289,65.09513548,0,0.229707253,0.016604149,-0.050974904
202,-10,1.1,4,71.42857143,1758,-4594,-2032,3513,1333,9497,-2850,-7402,-120,-400,116,1120,59.58,65.49477149,59.94553711,65.04452045,0,0.307980453,-0.048925781,-0.050615031
202,-10,1.1,4,72.38095238,2118.633971,-5121.28507,-1168.656036,3471.339033,955.8899828,9819.598663,-2334.606816,-7500,730.4038877,-456.8285714,151.5,1125.672556,59.58,65.57757402,59.94,65.04,0,0.082802533,-0.005537109,-0.004520447
202,-10,1.1,4,73.33333333,2342,-5648,-340,3392,634,10082,-1756,-7598,1444,-553,187,1131,59.58,65.61451824,59.94,65.04212224,0,0.036944218,0,0.002122238
202,-10,1.1,4,74.28571429,2275.333333,-6185.089137,-375.1793773,3310.599637,417.9811599,10379.6282,-1582.790299,-7568.388243,1368.341766,-635.1920075,181.5,1267.334395,59.58,65.66904645,59.94,65.21218323,0,0.054528211,0,0.170060994
202,-10,1.1,4,75.23809524,2108.666667,-6698.023066,-471.4628964,3216.68257,215.5803291,10705.68409,-1510,-7512,1226,-715,176,1474,59.58,65.72446307,59.94126889,65.38358503,0,0.05541662,0.001268887,0.171401801
202,-10,1.1,4,76.19047619,1892,-7231.491453,-614.9686376,3109.606436,38.23965267,11023.35846,-1578.64,-7456.022138,1073.310307,-785.3948389,197.4391933,1610.049276,59.58,65.75776242,59.95390767,65.50219717,0,0.033299344,0.012638785,0.11861214
202,-10,1.1,4,77.14285714,1675.333333,-7830.18396,-791.8146816,2988.728871,-102.5987243,11295.84205,-1742.32,-7392.40998,889.9714003,-850.7232957,250.0775798,1726.723092,59.58396907,65.71016418,59.97606311,65.6052983,0.003969067,-0.047598239,0.022155439,0.103101129
202,-10,1.1,4,78.0952381,1508.666667,-8538.790255,-988.1191089,2853.407513,-195.4926569,11486.32564,-1937.68,-7316.986754,687.9773396,-913.9543331,316.3963697,1840.77227,59.60052996,65.53523026,60.00272644,65.70091116,0.016560893,-0.174933912,0.026663327,0.095612857
202,-10,1.1,4,79.04761905,1442,-9402,-1190,2703,-229,11558,-2101.36,-7225.575685,479.322186,-978.0569137,378.8767731,1968.947632,59.6245233,65.36747558,60.02888889,65.79705849,0.023993338,-0.167754682,0.026162451,0.096147326
202,-10,1.1,4,80,1734,-10816,-1458,2497,-43,11529,-2170,-7114,276,-1046,420,2128,59.65323426,65.3628125,60.0495417,65.90176302,0.028710958,-0.004663082,0.020652809,0.104704536
202,-10,1.1,4,80.95238095,1252.814815,-12269.17335,-1246.962963,2430.346791,351.4083554,11381.61958,-2002.518519,-6881.459147,30.96695617,-1124.037066,438.3484238,2371.947967,59.69413905,65.53097656,60.0596761,66.02304751,0.040904798,0.168164063,0.010134402,0.121284486
202,-10,1.1,4,81.9047619,359.1851852,-13624.03112,-855.037037,2390.501808,964.831377,11074.69679,-1691.481481,-6578.507351,-218.0720775,-1205.061026,451.8490418,2672.068505,59.71661962,65.51059231,60.06,66.19547622,0.022480562,-0.020384256,0.0003239,0.172428717
202,-10,1.1,4,82.85714286,-122,-14222,-644,2341,1723,10672,-1524,-6428,-332,-1272,472,2921,59.7316853,65.42574598,60.06,66.35,0.015065688,-0.084846326,0,0.154523776
202,-10,1.1,4,83.80952381,134,-13208,-1148,2258,2817,10002,-1551.477985,-6631.491145,3.794563559,-1329.017417,511.1353843,3084.841178,59.74729831,65.34731122,60.06,66.40748748,0.015613004,-0.078434765,0,0.057487479
202,-10,1.1,4,84.76190476,1036,-12544,-1604,2096,3417,9501,-1633.622637,-7110.537845,628.478016,-1378.11982,574.9537618,3220.538065,59.77411765,65.33,60.05865615,66.42,0.026819339,-0.017311215,-0.001343846,0.012512521
202,-10,1.1,4,85.71428571,2290,-12488,-1482,1881,4189,8761,-1770,-7668,968,-1399,665,3357,59.81611924,65.33,60.04549072,66.42,0.042001597,0,-0.013165437,0
202,-10,1.1,4,86.66666667,3203.284354,-12734,-941.9463529,1768.759896,4442.714583,8125.982142,-3048.837267,-8477.012034,972.3977827,-1292,857.7545909,3541.120226,59.82,65.20527969,60.02309942,66.42,0.003880756,-0.124720313,-0.022391301,0
202,-10,1.1,4,87.61904762,3914,-12980,-10,1678,4542,7454,-4246,-9082,974,-1185,1111,3652,59.82067383,64.95735352,59.99729082,66.41921387,0.000673828,-0.247926172,-0.025808597,-0.000786133
202,-10,1.1,4,88.57142857,4416,-12618,1316,1578,4257,6549,-3372,-9156,142,-1372,1337,3566,59.86608398,64.84893555,59.95952594,66.36623535,0.045410156,-0.108417969,-0.037764882,-0.052978516
202,-10,1.1,4,89.52380952,5404.846148,-11796.89981,1403.427536,1200.007166,3632.371908,5092.824269,-2596.182893,-8741,-757.1733747,-1471.803637,1293.565217,3667.957127,59.88,64.84320302,59.9230121,66.35906789,0.013916016,-0.005732529,-0.036513839,-0.007167459
202,-10,1.1,4,90.47619048,6646,-10968,1430,693,2779,3098,-2182,-8326,-1664,-1538,1229,3831,59.88,64.89481481,59.89033359,66.40622648,0,0.051611797,-0.032678509,0.047158585
202,-10,1.1,4,91.42857143,7862,-10590,692,305,1814,203,-2666,-8584,-2522,-1579,1193,3946,59.88,64.87906494,59.85422954,66.45760216,0,-0.015749873,-0.036104048,0.051375678
202,-10,1.1,4,92.38095238,8276,-10904,1042,52,1087,-1079,-3167.570842,-9054.392322,-1808.890389,-1599.109693,1143.581395,4074.948331,59.88,64.82561731,59.81603027,66.48921387,0,-0.053447633,-0.038199268,0.031611712
202,-10,1.1,4,93.33333333,7458,-9908,2118,-194,249,-2712,-3450,-9802,-820,-1622,1113,4222,59.88,64.78156476,59.7698877,66.43623535,0,-0.044052552,-0.046142578,-0.052978516
202,-10,1.1,4,94.28571429,6106,-11906,1158,-483,-432,-3202,-3310.302359,-11273.19037,-409.410758,-1695.665064,1136.366766,4393.607391,59.88,64.74052246,59.76,66.45129452,0,-0.0410423,-0.009887695,0.015059173
202,-10,1.1,4,95.23809524,1853.843964,-11171.07294,1300.1875,-671.7156201,-1011.302178,-3031.375,-3014,-13268,-4,-1804,1179,4605,59.88,64.70034631,59.76,66.56426013,0,-0.04017615,0,0.112965601
202,-10,1.1,4,96.19047619,-5012.916476,-9553.694508,1613,-836.358329,-1568.04638,-2656,-2529.223731,-15900.60011,908.0168543,-1947.239392,1233.199823,4949.597733,59.9003216,64.61385915,59.76,66.53352534,0.020321596,-0.086487157,0,-0.030734785
202,-10,1.1,4,97.14285714,-11401.21868,-7934.968822,1925.8125,-952.8218734,-1986.767393,-2280.625,-1836.364864,-18748.41117,2034.786205,-2104.175252,1293.4888,5359.321834,59.94372481,64.55069815,59.76039703,66.49,0.043403216,-0.063161001,0.00039703,-0.043525341
202,-10,1.1,4,98.0952381,-14218,-7196,2068,-997,-2152,-2110,-1138,-20082,2586,-2178,1322,5618,59.9876898,64.59999593,59.79371591,66.49,0.043964991,0.049297781,0.033318879,0
202,-10,1.1,4,99.04761905,-9248.374458,-7191.652746,-1920,-936.933088,-206,-4093.347478,-338.6019179,-19477.67343,2484.070692,-2144.5,1183,5695.759151,60,64.60457618,59.83755932,66.49,0.012310197,0.00458025,0.043843415,0
202,-10,1.1,4,100,-1308,-7190,-5908,-762,1740,-6113,144,-18144,2226,-2111,1044,5758,60,64.49918678,59.87821757,66.49,0,-0.105389397,0.04065825,0
202,-10,1.1,1,0,4278,-13154,1482,212,1057,-6154,-2309.187899,-14830.32657,969.9293078,-2172.5,1102.297297,5871.515291,60,64.41346604,59.87527601,66.49438315,0,-0.085720739,-0.002941558,0.004383147
202,-10,1.1,1,0.961538462,6128,-18820,8414,784,89,-6481,-5788,-12246,-130,-2234,1236,5945,60,64.33427166,59.85867025,66.51124238,0,-0.07919438,-0.016605766,0.01685923
202,-10,1.1,1,1.923076923,10120,-4948,4112,-278,-1047,-6713,-7879.295587,-13122.2963,257.4359352,-2194.779702,1513.843141,5874.615934,60,64.2552822,59.83464336,66.53910906,0,-0.078989463,-0.024026892,0.027866685
202,-10,1.1,1,2.884615385,8283.407407,-5289.703704,1532.212409,-800.1429813,-881.6210685,-6864.793382,-9614.203349,-14749.7037,1263.094093,-2092.003849,1980.479076,5676.676312,60,64.17198737,59.80798316,66.57622893,0,-0.083294832,-0.026660194,0.03711987
202,-10,1.1,1,3.846153846,4872.592593,-5924.296296,-448.7826558,-1172.793713,-537.5754704,-6983.841136,-10338,-15626,2652,-1948,2538,5371,60,64.07987688,59.78347749,66.62084772,0,-0.092110487,-0.024505674,0.044618785
202,-10,1.1,1,4.807692308,3036,-6266,-2102,-1315,-243,-7032,-6592.348804,-13763.59848,5731.622316,-1645.797363,3262.591871,4344.701564,60,63.95887056,59.76591416,66.67121115,0,-0.121006321,-0.017563331,0.050363429
202,-10,1.1,1,5.769230769,4731,-6172,-3804.916688,-1268.724244,-38.5512979,-6794.185194,-1726,-10018,9218,-1221,4111,2666,59.99932617,63.85397569,59.76,66.72619786,-0.000673828,-0.10489487,-0.005914158,0.054986717
202,-10,1.1,1,6.730769231,6426,-6078,-4718,-1140,69,-6313,-106,-4826,11092,-781,4956,643,59.95391602,63.81320119,59.76,66.82635539,-0.045410156,-0.040774499,0,0.100157525
202,-10,1.1,1,7.692307692,5682,-7298,-636,-576,-168,-5634,-1418,4761.990673,5101.167268,-311.1395355,3633.033808,432.4409002,59.94,63.74974213,59.76,66.89765554,-0.013916016,-0.063459057,0,0.071300148
202,-10,1.1,2,8.653846154,5296,-5888,920,-552,-55,-5401,-2730,11268,-2852,108,1665,281,59.94,63.65613845,59.76,66.93800988,0,-0.093603683,0,0.040354339
202,-10,1.1,2,9.615384615,5601,-6365.180806,1156.864842,-775,-149,-4829.849981,-638,7946.277197,-6564.167268,363.8583601,281.4661925,-21.65456919,59.93389352,63.6003232,59.76,66.97450441,-0.006106484,-0.055815247,0,0.036494537
202,-10,1.1,2,10.57692308,5906,-7156,1236,-998,-243,-4117,1454,3850,-8314,660,-457,-507,59.916176,63.55293145,59.76,67.0268595,-0.017717516,-0.047391756,0,0.05235509
202,-10,1.1,2,11.53846154,3820,-7778,-814,-924,-197,-3533,188,2733.819244,-5027.525319,1556.304017,-292,-1795.210723,59.89239921,63.52410517,59.76,67.12836999,-0.023776793,-0.028826277,0,0.101510482
202,-10,1.1,2,12.5,3820.717371,-7757.804687,-798.3584996,-826.960065,-176.7064089,-3166.129259,-1078,1892,-1132,2436,-127,-3276,59.86139473,63.53251781,59.75125812,67.19283516,-0.031004478,0.008412639,-0.008741882,0.064465177
202,-10,1.1,2,13.46153846,3823.138128,-7704.5625,-752.5148557,-707.7853807,-158.8007438,-2836.841867,-698.962963,817.6802867,-50.84387819,2717.026394,-183.434809,-4141.120491,59.82178866,63.57770405,59.70795984,67.22939262,-0.039606069,0.045186241,-0.043298277,0.036557462
202,-10,1.1,2,14.42307692,3827.66524,-7629.289062,-678.0903544,-576.7275981,-143.3809831,-2543.756255,4.962962963,-273.7155836,680.9113942,2896.787899,-332.0918401,-4845.404852,59.82,63.56026793,59.66272505,67.31295413,-0.001788661,-0.017436116,-0.045234795,0.083561507
202,-10,1.1,2,15.38461538,3834.701675,-7543,-576.7062818,-444.0383684,-130.5451056,-2285.490855,384,-1186,950,3144,-542,-5548,59.82,63.50664872,59.6415632,67.4190725,0,-0.053619216,-0.021161846,0.106118367
202,-10,1.1,2,16.34615385,3844.6504,-7456.710937,-449.983924,-319.9693426,-120.3910899,-2060.664098,-688,-1824,-1646,3630,-980,-6301,59.82,63.40387885,59.67868919,67.51315129,0,-0.102769873,0.037125992,0.094078787
202,-10,1.1,2,17.30769231,3857.914384,-7381.4375,-299.5445671,-214.7721719,-113.0169146,-1867.894415,-906,-2372,-2404,4013,-1149,-6759,59.82,63.41513561,59.72131081,67.57458427,0,0.011256769,0.042621616,0.061432987
202,-10,1.1,2,18.26923077,3874.896595,-7328.195313,-127.009497,-138.6985074,-108.5205584,-1705.800239,-1083.696165,-2427.205928,-1691.435206,4466.673478,-1336.17943,-7135.549392,59.82,63.56246121,59.7584368,67.61711562,0,0.147325593,0.037125992,0.042531342
202,-10,1.1,2,19.23076923,3896,-7308,66,-102,-107,-1573,-1254,-2478,-882,4793,-1444,-7504,59.82,63.62769754,59.76,67.73655671,0,0.065236333,0.0015632,0.119441095
202,-10,1.1,2,20.19230769,4056,-7638,468,-93,-108,-1482,-1446.456695,-2948.923068,-752.1691312,4884.51984,-1350.46075,-7949.204718,59.82257813,63.6398555,59.76,67.88136321,0.002578125,0.012157959,0,0.144806502
202,-10,1.1,2,21.15384615,3668.516129,-7255,1156.868209,-147.3801498,-142.503639,-1332.198171,-1632,-3704,-660,4951,-1205,-8365,59.870625,63.43717442,59.76,67.96977349,0.048046875,-0.202681081,0,0.08841028
202,-10,1.1,2,22.11538462,3132,-6872,1614,-235,-201,-1234,-1799.344071,-4398.168674,-516.6128957,5047.028204,-1109.642952,-8694.772361,59.88,63.34326313,59.74285365,68.0919528,0.009375,-0.093911287,-0.017146346,0.122179305
202,-10,1.1,2,23.07692308,2938.561486,-7618,1459,-314.1198502,-254.0644184,-1257.387236,-1962.23625,-5137.939272,-345.9395076,5158.43673,-1025.860454,-8998.893301,59.88,63.31032938,59.70059841,68.2386092,0,-0.03293375,-0.042255241,0.146656405
202,-10,1.1,2,24.03846154,2692,-8364,1304,-360,-308,-1295,-2114.056392,-5906.825532,-181.9596717,5264.131153,-945.5564808,-9271.328062,59.84735599,63.38616935,59.7,68.33949136,-0.032644006,0.075839966,-0.000598412,0.100882161
202,-10,1.1,2,25,1466,-8064,1480,-330,-358,-1322,-2248.184357,-6688.341194,-58.65322392,5343.017051,-860.6350051,-9506.041882,59.82,63.44732139,59.7,68.41261887,-0.027355994,0.061152046,0,0.073127509
202,-10,1.1,2,25.96153846,1297.456808,-7964.854369,1397.343899,-397.1699346,-429.8629442,-1466.30684,-2358,-7466,-10,5374,-763,-9697,59.82,63.39460411,59.7,68.46968132,0,-0.052717281,0,0.057062452
202,-10,1.1,2,26.92307692,1242,-7926,1208,-502,-475,-1693,-2457.979008,-8220.708109,-13.95545196,5351.592593,-614.9894317,-9870.030525,59.82,63.38,59.69000449,68.46651876,0,-0.014604112,-0.009995509,-0.003162561
202,-10,1.1,2,27.88461538,1261.715375,-8216,659.6561014,-583.5167606,-454,-1929.59988,-2543.656171,-8985.926247,-26.7997928,5297.407407,-451.8836047,-10016.3486,59.82,63.38,59.64388152,68.40504944,0,0,-0.046122976,-0.061469321
202,-10,1.1,2,28.84615385,1312,-8506,218,-636,-433,-2168,-2580,-9824,-50,5231,-375,-10078,59.84776958,63.49865234,59.60146772,68.36476579,0.027769581,0.118652344,-0.042413794,-0.040283649
202,-10,1.1,2,29.80769231,1663.765259,-8182.962963,336.7654321,-650.9273565,-455.8330084,-2359.610153,-1982,-10818,-222,5140,-437,-10048,59.89180588,63.57037037,59.55596391,68.3310321,0.044036295,0.071718027,-0.04550381,-0.033733697
202,-10,1.1,2,30.76923077,2252.99374,-7583.037037,559.5308642,-660.5747894,-509.777128,-2535.728577,-1792,-11564,-124,5084,-638,-9939,59.93222752,63.47451989,59.52473327,68.28429333,0.040421644,-0.09585048,-0.031230639,-0.046738769
202,-10,1.1,2,31.73076923,2564,-7260,686,-664,-573,-2734,-1553.466455,-11992.96709,-547.8258643,4928.599603,-1022.366753,-9819.739467,59.94,63.51254128,59.56531393,68.16466482,0.007772479,0.038021389,0.040580654,-0.119628504
202,-10,1.1,2,32.69230769,2280.37037,-7579.925926,695.8024691,-659.8134431,-649.6263028,-3006.87043,-1338,-12334,-1148,4703,-1511,-9654,59.94,63.77283207,59.74883639,67.93917751,0,0.26029079,0.183522468,-0.225487313
202,-10,1.1,2,33.65384615,1753.62963,-8174.074074,701.9012346,-649.4046639,-743.4182976,-3311.365637,-1176.323782,-12661.22175,-1505.174136,4456.501636,-2040.078077,-9294.325556,59.97264401,63.92908593,59.83354298,67.89264752,0.032644006,0.15625386,0.084706591,-0.046529994
202,-10,1.1,2,34.61538462,1470,-8494,704,-636,-832,-3542,-1094,-12978,-1686,4171,-2543,-8784,60,63.98742188,59.88898688,67.84181856,0.027355994,0.058335945,0.055443895,-0.050828955
202,-10,1.1,2,35.57692308,1842.675779,-8105.62963,567.6020299,-609.1138546,-900.7740498,-3699.833511,-1845.804642,-13398.45152,-1493,3841.186364,-2938.783361,-8209.338519,60,63.939375,59.92330071,67.67714509,0,-0.048046875,0.034313829,-0.164673468
202,-10,1.1,2,36.53846154,2647.351558,-7384.37037,243.6485042,-573.6680384,-965.2028365,-3826.8612,-3016,-13654,-1300,3483,-3253,-7516,59.99751299,63.93610807,59.98655898,67.59935856,-0.002487011,-0.003266935,0.063258271,-0.077786535
202,-10,1.1,2,37.5,3414,-6996,-140,-556,-1048,-3879,-3678.666267,-13449.18165,-1421,3142.026149,-3519.371634,-6705.949245,59.98353104,63.96883882,60.05907351,67.55694829,-0.013981954,0.032730755,0.072514527,-0.042410272
202,-10,1.1,2,38.46153846,3970,-7200,-620,-661,-1185,-3859,-4498,-13002,-1542,2742,-3657,-5660,59.95972382,64.02042163,60.05348153,67.36329481,-0.023807219,0.051582808,-0.005591974,-0.193653477
202,-10,1.1,2,39.42307692,3760,-8354,-840,-673,-1211,-3996,-6558,-12208,-1386,2129,-3608,-4013,59.92894238,64.08008389,60.03476591,67.0161369,-0.030781439,0.059662259,-0.018715626,-0.347157913
202,-10,1.1,2,40.38461538,2452,-10126,-300,-776,-1210,-4144,-6880,-10864,-950,1484,-3252,-2925,59.89403776,64.137053,60.01010669,66.75047958,-0.034904616,0.056969109,-0.024659213,-0.265657316
202,-10,1.1,2,41.34615385,667.813449,-12236.5665,769.4543011,-947.3302139,-1277,-4448.461714,-8419.610355,-10459.28144,-532.2013542,757.71581,-2787.711802,-1054.800554,59.85786101,64.18055635,59.97661152,66.74000407,-0.036176748,0.043503356,-0.033495172,-0.01047551
202,-10,1.1,2,42.30769231,-434,-13660,1546,-1060,-1344,-4842,-9714,-10092,70,337,-2178,643,59.82326318,64.19982135,59.94046084,66.78930185,-0.034597836,0.019265003,-0.036150678,0.049297781
202,-10,1.1,2,43.26923077,-164,-13904,1590,-1011,-1104,-5245,-4852.4375,-9291.089558,3100.233962,699.8125,-1222.181669,1576.302378,59.77882276,64.2,59.9755957,66.71373431,-0.044440422,0.000178646,0.035134858,-0.07556754
202,-10,1.1,2,44.23076923,-210.592,-14279.86423,1473.104,-934.6977166,-1121.16,-5376.657027,5843,-8075.76938,8681.430189,1498,56.60831237,2366.713225,59.76,64.2,60,66.62254146,-0.018822756,0,0.024404297,-0.091192857
202,-10,1.1,2,45.19230769,-321.696,-14765.82808,1194.352,-835.1549312,-1162.08,-5463.391727,16538.4375,-6534.564511,14053.91132,2296.1875,1404.094137,2914.267459,59.76,64.2,60,66.57566798,0,0,0,-0.046873471
202,-10,1.1,2,46.15384615,-454.304,-15273.05981,861.648,-735.4632874,-1210.92,-5525.697914,21400,-4756,16458,2659,2566,3119,59.76,64.24000814,60.00522915,66.58917355,0,0.040008142,0.005229151,0.013505569
202,-10,1.1,2,47.11538462,-565.408,-15712.72769,582.896,-658.7144291,-1251.84,-5584.069401,12250,-1542.066004,12679.19161,1499.159397,3678.58932,2269.5,59.76,64.3386037,60.02863678,66.67500153,0,0.098595563,0.02340763,0.085827977
202,-10,1.1,2,48.07692308,-612,-15996,466,-628,-1269,-5659,3100,738,3786,-785,4299,1420,59.7244043,64.34,60.05304616,66.7645026,-0.035595703,0.001396296,0.024409383,0.089501071
202,-10,1.1,2,49.03846154,867.375,-16165.94847,641.3125,-741.90625,-1253.088038,-5770.898303,21046,-4218,-16330,-3762,1816,4502,59.7,64.34,60.06,66.78738362,-0.024404297,0,0.006953836,0.022881019
202,-10,1.1,2,50,4122,-16311.73197,1027,-992.5,-1214.484768,-5900.020713,15896,-5976.044661,-13289.6875,-3588.990659,1209.620506,5816.798835,59.7,64.34,60.06,66.74634349,0,0,0,-0.041040135
202,-10,1.1,3,50.96153846,7376.625,-16413.64949,1412.6875,-1243.09375,-1166.889114,-6006.632768,4566,-7278.595255,-6601,-3191.808423,811.0926857,6831.682298,59.7,64.34,60.06,66.67047969,0,0,0,-0.075863793
202,-10,1.1,3,51.92307692,8856,-16452,1588,-1357,-1124,-6051,-6764,-8087.84822,87.6875,-2753.221976,560.2685227,7485.474612,59.7,64.34,60.06,66.579224,0,0,0,-0.091255692
202,-10,1.1,3,52.88461538,8800.904196,-15569.25,1339.210937,-1353.871705,-1092.552425,-5897.085886,-11914,-8366,3128,-2456,397,7717,59.7,64.34,60.0955957,66.42363859,0,0,0.035595703,-0.155585407
202,-10,1.1,3,53.84615385,8639.528672,-13242,683.3125,-1344.042276,-1067.589405,-5472.053396,-11462.34111,-8178.8,2510.448,-2326.977959,263.8063734,7619.819939,59.69505394,64.35509105,60.11663983,66.35,-0.004946061,0.015091047,0.021044125,-0.073638593
202,-10,1.1,3,54.80769231,8377.741261,-9951.75,-243.9921875,-1326.844892,-1045.271887,-4830.967304,-10381.58333,-7732.4,1037.824,-2246.034092,147.98717,7353.059818,59.6484022,64.50868093,60.07691062,66.35,-0.04665174,0.15358988,-0.039729206,0
202,-10,1.1,3,55.76923077,8021.409793,-6180,-1307,-1301.612736,-1021.760818,-4028.892388,-9083.054996,-7199.6,-719.824,-2175.501245,56.56478003,6953.889728,59.64,64.57627612,60.03249029,66.28560957,-0.008402198,0.067595197,-0.044420334,-0.064390433
202,-10,1.1,3,56.73076923,7576.402101,-2408.25,-2370.007813,-1267.678987,-993.2171475,-3120.893423,-7978.084441,-6753.2,-2192.448,-2077.712265,-3.438406656,6459.479758,59.64,64.60530395,60,66.05,0,0.029027822,-0.032490288,-0.235609567
202,-10,1.1,3,57.69230769,7048.586017,882,-3297.3125,-1224.376827,-955.8018223,-2162.035187,-7478,-6566,-2810,-1915,-25,5907,59.64,64.62449918,60,65.77907625,0,0.01919523,0,-0.270923754
202,-10,1.1,4,58.65384615,6443.829373,3209.25,-3953.210938,-1171.039438,-905.6757906,-1207.382453,-7440,-6862,-594,-1414,168,5012,59.64,64.64381323,60.00139745,65.55788233,0,0.01931405,0.001397446,-0.221193911
202,-10,1.1,4,59.61538462,5768,4092,-4202,-1107,-839,-312,-5816,-7750,1030,-1385,262,4483,59.64,64.67319751,60.02059771,65.40717877,0,0.029384281,0.019200267,-0.150703565
202,-10,1.1,4,60.57692308,4278.085216,3145.856859,-3629.654414,-642.209895,-434.8976204,523.2829229,-5188.487939,-8209.270913,967.2913193,-1577.5,256.1114401,3916.493484,59.64,64.74520499,60.04681025,65.28445304,0,0.072007486,0.026212539,-0.122725732
202,-10,1.1,4,61.53846154,2025.110294,1181.935941,-2257.753273,262.3939419,235.7178564,1445.637587,-4932,-8414,812,-1770,243,3426,59.64,64.83,60.06,65.18,0,0.084795007,0.013189749,-0.104453038
202,-10,1.1,4,62.5,206,-488,-604,1081,589,2622,-4961.037037,-8309.226273,14.66728413,-1625.922652,208.8389213,3092.015236,59.60214126,64.83,60.02815984,65.09258434,-0.037858742,0,-0.031840159,-0.087415662
202,-10,1.1,4,63.46153846,-756,-1388,1564,1614,452,4505,-5014.962963,-8024.89699,-1272.110802,-1325.845304,160.5305718,2820.087092,59.58,64.81062012,59.99244186,65.01706176,-0.022141258,-0.019379883,-0.035717985,-0.075522578
202,-10,1.1,4,64.42307692,-352.9150006,-1386.297231,1383.039889,1896.505677,512.7737342,5538.113505,-5044,-7606,-1946,-1068,136,2575,59.58,64.63937988,59.96753724,64.93315047,0,-0.171240234,-0.024904617,-0.083911287
202,-10,1.1,4,65.38461538,266,-1382,1024,2118,629,6305,-4518,-6592,-1156,-925,157,2354,59.58,64.6507185,59.94794175,64.8607906,0,0.011338619,-0.019595492,-0.072359876
202,-10,1.1,4,66.34615385,734.7462515,-1342.20623,497.0584935,2338.539739,792.7903481,6983.869733,-4318,-7104,470,-765,117,2071,59.58,64.76,59.94,64.83,0,0.109281498,-0.007941746,-0.030790596
202,-10,1.1,4,67.30769231,1204.830001,-1261.405537,-222.5177959,2543.581116,1008.952532,7579.545361,-4432,-7561.324481,457.0600751,-738.4954126,148.2195122,1820.530721,59.58,64.8692815,59.94,64.83,0,0.109281498,0,0
202,-10,1.1,4,68.26923077,1566.99875,-1181.902077,-911.3351873,2751.331936,1197.388449,8136.198308,-4546,-7806,414,-723,197,1615,59.58,64.89354004,59.94,64.83073774,0,0.024258541,0,0.00073774
202,-10,1.1,4,69.23076923,1712,-1146,-1346,2980,1278,8698,-4318,-7638,-350,-706,229,1479,59.58,64.83645996,59.94,64.84285647,0,-0.057080078,0,0.012118732
202,-10,1.1,4,70.19230769,1586,-1892,-1512,3250,1154,9265,-3454,-7892,-612,-610,206,1272,59.58,64.93415755,59.94,64.86712336,0,0.097697585,0,0.024266885
202,-10,1.1,4,71.15384615,1282,-3378,-1402,3642,655,10142,-3096,-7456,-74,-512,180,1270,59.58,65.18,59.94,64.9,0,0.245842454,0,0.032876643
202,-10,1.1,4,72.11538462,1003.968504,-4130.968928,-1047.679264,3793.219353,492.4604647,10765.30574,-3174.296296,-7382.081875,329.3474089,-522.3002755,198.3997324,1275.932993,59.6063795,65.33076371,59.94,64.98064306,0.026379497,0.150763708,0,0.080643055
202,-10,1.1,4,73.07692308,854,-4762,-606,3855,429,11144,-3319.703704,-7342.349633,661.7848155,-546.600551,239.6883536,1292.532652,59.65880457,65.46217804,59.93446289,65.05580253,0.052425077,0.131414332,-0.005537109,0.07515947
202,-10,1.1,4,74.03846154,1114,-5546,-306,3763,540,11254,-3398,-7314,800,-575,283,1318,59.69720511,65.53527106,59.88553711,65.09773903,0.038400534,0.073093017,-0.048925781,0.041936509
202,-10,1.1,4,75,1146,-6888,-706,3615,663,11713,-3054.638787,-7283.435145,573,-606.3812377,332.8419678,1403.353219,59.7,65.51187102,59.88,65.13844579,0.002794891,-0.023400037,-0.005537109,0.040706751
202,-10,1.1,4,75.96153846,1199.863432,-8371.706693,-790.6608137,3499.447158,863.6319013,11764.65424,-2604,-7268,346,-648,364,1533,59.7,65.40932599,59.88,65.18,0,-0.102545032,0,0.041554215
202,-10,1.1,4,76.92307692,1275.155935,-10049.74901,-856.1347304,3403.963779,1133.427664,11803.12632,-2465.509574,-7340.469996,357.7405208,-708.0398134,356.5092736,1667.825438,59.7,65.29924221,59.91249029,65.24104452,0,-0.110083773,0.032490288,0.061044521
202,-10,1.1,4,77.88461538,1375.646676,-11715.16323,-904.1136788,3315.663618,1455.174822,11830.10658,-2310,-7522,396,-785,337,1794,59.7,65.24543303,59.95437042,65.24879707,0,-0.053809187,0.041880134,0.007752548
202,-10,1.1,4,78.84615385,1505.104822,-13160.98562,-936.2895874,3221.660431,1811.660909,11847.28538,-1754,-8034,912,-881,273,1879,59.7,65.21258056,59.98945888,65.18659475,0,-0.032852471,0.035088457,-0.06220232
202,-10,1.1,4,79.80769231,1667.299541,-14180.25245,-954.354385,3109.067974,2185.673457,11856.35307,-1010,-8328,1944,-1052,428,2022,59.7,65.18901994,60.03069001,65.18,0,-0.023560614,0.041231126,-0.006594749
202,-10,1.1,4,80.76923077,1866,-14566,-960,2965,2560,11859,-1699,-8559.44198,2352.103448,-1114.266075,522.4722446,2231.486824,59.7,65.18,60.06,65.18,0,-0.009019942,0.029309994,0
202,-10,1.1,4,81.73076923,2324.942994,-14483.57671,-928.2923663,2717.930355,3054.701949,11644.44714,-2388,-8678,2520,-1167,602,2454,59.7088608,65.24375045,60.04681025,65.25654957,0.008860798,0.063750452,-0.013189749,0.076549565
202,-10,1.1,4,82.69230769,3059.746175,-14281.15342,-843.6958437,2394.261474,3587.128752,11134.33873,-2303.76,-8446.912,2038.064,-1269.567502,693.567623,2635.091439,59.7296151,65.37044439,60.02059771,65.43451546,0.020754297,0.126693937,-0.026212539,0.177965897
202,-10,1.1,4,83.65384615,3762,-14026,-722,2128,3836,10529,-2102.88,-7895.856,888.832,-1409.993439,791.0841457,2798.359835,59.75352074,65.46324568,60.00139745,65.63637349,0.023905648,0.092801291,-0.019200267,0.20185803
202,-10,1.1,4,84.61538462,4272.361655,-13706.4237,-276.6974478,1965.868729,3775.543343,9883.226223,-1863.12,-7238.144,-482.832,-1553.435626,884.2168568,2956.782512,59.7744456,65.45521033,60.0244043,65.84524863,0.020924862,-0.00803535,0.023006851,0.208875142
202,-10,1.1,4,85.57692308,4718.955114,-13265.72507,527.4911575,1840.538833,3606.698914,9090.448737,-1662.24,-6687.088,-1632.064,-1665.051875,962.6330453,3123.336792,59.79575859,65.39337877,60.06,65.97930185,0.021312988,-0.061831557,0.035595703,0.134053217
202,-10,1.1,4,86.53846154,5224.571016,-12703.66391,1297.934184,1714.939521,3348.255028,8108.946882,-1578,-6456,-2114,-1710,1016,3311,59.81849622,65.30348131,60.06,65.93000407,0.022737624,-0.089897464,0,-0.049297781
202,-10,1.1,4,87.5,5912,-12020,1642,1552,3019,6897,-1836.128834,-6544.622163,-2041.21301,-1652.764175,1051.849525,3559.872975,59.84335721,65.20754073,60.05862781,65.91567215,0.024860992,-0.095940579,-0.001372193,-0.014331922
202,-10,1.1,4,88.46153846,7527.816435,-10617.86366,1096,1321.860432,2242.597719,4922.233291,-2370,-6752,-1888,-1575,1069,3780,59.8710403,65.12757983,60.04526321,65.96421265,0.027683093,-0.079960903,-0.013364599,0.048540501
202,-10,1.1,4,89.42307692,8734,-9588,550,1015,1210,2560,-3338.682866,-7276.359167,-1568.78699,-1535.235825,1050.5,3921.262887,59.91114069,65.0795491,60.02278271,66.02444027,0.040100386,-0.048030723,-0.022480497,0.060227621
202,-10,1.1,4,90.38461538,8537.488372,-9869,715.7549976,524.4137097,366.0370305,359.0643371,-4186,-7954,-1330,-1516,1032,3990,59.94,65.03416623,59.99740189,66.04930185,0.028859312,-0.045382874,-0.025380822,0.024861582
202,-10,1.1,4,91.34615385,8334,-10150,996,31,-469,-1572,-4449.1883,-8398.269275,-1427,-1556.100503,1046.105505,3944,59.94,64.9532591,59.96287929,66.00000407,0,-0.080907131,-0.034522596,-0.049297781
202,-10,1.1,4,92.30769231,8326,-9248,1230,-257,-1333,-2897,-4558,-8948,-1524,-1621,1073,3898,59.94,64.85467064,59.92244068,65.9909375,0,-0.098588463,-0.040438616,-0.009066571
202,-10,1.1,4,93.26923077,-97.59726574,-21008,-3443,-1454.494322,-2333.17271,-1891,-3921.135394,-10357.47094,-540.2596637,-1659.397529,1098.149269,3936.051242,59.94,64.77176368,59.88178243,66.04699219,0,-0.082906955,-0.04065825,0.056054687
202,-10,1.1,4,94.23076923,-8514,-32768,-8116,-2438,-2918,-885,-2810,-12088,904,-1715,1141,4043,59.94,64.72703815,59.88,66.05,0,-0.044725535,-0.001782427,0.003007813
202,-10,1.1,4,95.19230769,-2059,-14890,-1643,-1254.5,-2881.062439,-2005,-1792,-13372,1676,-1942,1308,4536,59.94,64.68421031,59.87960297,66.04930185,0,-0.042827836,-0.00039703,-0.000698148
202,-10,1.1,4,96.15384615,4396,2988,4830,-71,-2796,-3125,-1138.398776,-16031.59375,1823.295965,-2122.64822,1348.483839,4945.110797,59.94,64.60380665,59.84628409,66.00000407,0,-0.080403661,-0.033318879,-0.049297781
202,-10,1.1,4,97.11538462,-4154,-2484,2954,-1940,-2617,-2217,-629.1993882,-19283.90799,1908.536871,-2274.935221,1372.853031,5296.961562,59.94,64.50902825,59.80244068,65.98,0,-0.094778403,-0.043843415,-0.020004071
202,-10,1.1,4,98.07692308,-15526,-9488,-15390,-1710,-733,-3929,-424,-20870,1936,-2339,1381,5464,59.94,64.414159,59.76178243,65.98,0,-0.094869249,-0.04065825,0
202,-10,1.1,4,99.03846154,-8190,-6322,-11946,-986,1553,-5862,-595.9630149,-18874.17705,1748.840215,-2238.283586,1246.5,5481.13181,59.96735599,64.41,59.76,65.98973331,0.027355994,-0.004158996,-0.001782427,0.009733308
202,-10,1.1,4,100,3290,-15488,-1130,432,1174,-5410,-1074,-15214,1308,-2081,1112,5500,60,64.40980798,59.76,66.02541483,0.032644006,-0.000192023,0,0.03568152
202,-10,1.1,1,0,5560,-19940,6886,973,364,-5605,-3162,-11336,308,-1978,1298,5663,60,64.38916498,59.76,66.08055231,0,-0.020642994,0,0.055137484
202,-10,1.1,1,0.943396226,4321.259259,-16065.62963,5591.813567,326.4074074,6.918262641,-6298.348727,-6012.926456,-12768.14815,528.7055043,-1940.869834,1573.436312,5657.834287,60,64.34281033,59.76,66.16653991,0,-0.046354656,0,0.085987596
