locomotion_mode,terrain_info,walk_speed_info,gait_phase,gait_percentage,left_accel_x,left_accel_y,left_accel_z,left_gyro_x,left_gyro_y,left_gyro_z,right_accel_x,right_accel_y,right_accel_z,right_gyro_x,right_gyro_y,right_gyro_z,left_hip_angle,left_knee_angle,right_hip_angle,right_knee_angle,left_hip_angle_vel,left_knee_angle_vel,right_hip_angle_vel,right_knee_angle_vel
202,-10,0.9,3,0,2978,-10188,612,-540,-1166,-3355,-220,-8164,1692,-483,-8,2483,59.58059841,64.48,60.2999577,65.54,0.000598412,0.04152832,-4.23E-05,-0.031488999
202,-10,0.9,3,0,3709.985455,-9585.445473,74.63436482,-524.8208291,-1222.613372,-3335.751522,-1470,-7344,392,-608,22,2391,59.62285365,64.48,60.29533352,65.54,0.042255241,0,-0.004624176,0
202,-10,0.9,3,0,4270,-9320,-362,-509,-1248,-3308,-842,-7778,19.08249807,-500.5,-35,2381.879397,59.6315978,64.48,60.2846395,65.54,0.008744148,0,-0.010694025,0
202,-10,0.9,3,0,4530,-9514,-270,-485,-1180,-3263,-214,-8212,-122,-393,-92,2379,59.58494606,64.48,60.27011653,65.54,-0.04665174,0,-0.014522964,0
202,-10,0.9,3,0,8102,-9218,294,-472,-1230,-3039,-380.6825291,-8167.925926,186,-408.3460838,-68.14814815,2389.62963,59.58,64.50103778,60.25400554,65.54,-0.004946061,0.02103778,-0.016110992,0
202,-10,0.9,3,0,7963.393664,-8602.666864,750.0185305,-510.8888889,-1314.987787,-2743.434104,-772.2539471,-8086.074074,758,-440.3588342,-23.85185185,2409.37037,59.58016195,64.55443568,60.23845928,65.54,0.00016195,0.053397898,-0.015546261,0
202,-10,0.9,3,0,7634.565105,-7725.943444,1136.787043,-583.1111111,-1433.232684,-2398.452798,-1226,-8042,1066,-468,-2.54E-25,2420,59.59555556,64.60739366,60.21727593,65.54,0.015393605,0.052957982,-0.021183353,0
202,-10,0.9,3,0,7246,-6840,1300,-622,-1576,-2038,-1846.460169,-8061,827,-487.6106557,-21.5,2413.358396,59.62196844,64.65990955,60.19395988,65.54,0.026412889,0.052515886,-0.023316048,0
202,-10,0.9,3,0,6877.291518,-6225.437139,1191,-598.2769122,-1755.273085,-1720.508769,-2362,-8080,588,-498,-43,2395,59.63936556,64.68901101,60.18046748,65.54,0.017397112,0.029101458,-0.013492398,0
202,-10,0.9,4,0,6212,-5202,1082,-536,-1998,-1278,-2508.78238,-8042,658,-488.0697674,9.5,2250.135901,59.64,64.69,60.18,65.54,0.000634444,0.000988995,-0.000467483,0
202,-10,0.9,4,0,3006,2408,2488,-325,-2374,-116,-2636,-8004,728,-470,62,2021,59.64,64.6913963,60.18,65.54,0,0.001396296,0,0
202,-10,0.9,4,0,4018,9828,1032,-451,-2371,610,-2932.451948,-8014.339743,631.037037,-451.6537468,55.77777778,1826.318206,59.64,64.78999186,60.18,65.54,0,0.098595563,0,0
202,-10,0.9,4,0,1384,-1430,-4098,-299,-783,-60,-3300.709391,-8043.790597,450.962963,-430.8268734,44.22222222,1627.621202,59.64,64.83,60.18,65.54,0,0.040008142,0,0
202,-10,0.9,4,0,738.2912848,-1797.68515,-3036.717815,48.3785263,-549.3157006,328.3948054,-3504,-8090,354,-410,38,1427,59.64,64.83,60.18,65.54,0,0,0,0
202,-10,0.9,4,0,390.3945122,-1948.573729,-858.5467401,521.6454035,-418.6578503,1216.567389,-3530,-8234,378,-390,54,1224,59.66735599,64.86191533,60.18,65.54,0.027355994,0.031915327,0,0
202,-10,0.9,4,0,-108,-2164,928,880,-378,2189,-3308,-7930,268,-399,40,998,59.69932617,64.9,60.18,65.54,0.031970178,0.038084673,0,0
202,-10,0.9,4,0,-1178,-2640,1798,1048,-416,3185,-3191.118409,-7933.141934,279.9259259,-391.2723221,31.73443656,849.9784314,59.65391602,64.9,60.18,65.54,-0.045410156,0,0,0
202,-10,0.9,4,0,-707.653822,-2769.250385,1049.112515,1156.151275,-329.7189741,3746.245722,-3103.627115,-7943.394979,302.0740741,-371.9890887,25.47832939,730.5058824,59.64,64.90776074,60.17648891,65.54,-0.013916016,0.00776074,-0.003511093,0
202,-10,0.9,4,0,192.0256894,-2840.052333,-383.3305248,1244.493025,-122.1046149,4169.805618,-2950,-7962,314,-347,23,608,59.64,64.95351162,60.15526969,65.54,0,0.045750883,-0.021219214,0
202,-10,0.9,4,0,754,-2956,-1278,1360,130,4652,-2412,-8106,122,-307,57,470,59.64,65.02891124,60.13038673,65.54,0,0.075399613,-0.024882964,0
202,-10,0.9,4,0,842,-3276,-1418,1561,467,5314,-1960.399324,-8079,-20.47505756,-260.5155678,47.55429864,480.5,59.64,65.1155715,60.12,65.54,0,0.086660263,-0.010386729,0
202,-10,0.9,4,0,794,-3584,-1470,1694,702,5643,-1606,-8052,-92,-215,32,491,59.64,65.15625362,60.12,65.54,0,0.040682122,0,0
202,-10,0.9,4,0,911.1479549,-4103.624703,-1387.125587,1841.781824,772.4417721,6061.410636,-1388,-8078,338,-178,20,453,59.64,65.22581843,60.12,65.54,0,0.06956481,0,0
202,-10,0.9,4,0,1190.518132,-4770.109309,-1208.695619,1984.373616,816.6653305,6523.360119,-1627,-7987,377.6377014,-190.2532468,29.05172414,509.53125,59.64,65.32547045,60.12,65.54,0,0.09965202,0,0
202,-10,0.9,4,0,1524,-5408,-1040,2051,832,6933,-1866,-7896,410,-212,41,588,59.64,65.33,60.12,65.57191533,0,0.004529548,0,0.031915327
202,-10,0.9,4,0,1950,-5946,-920,2054,764,7244,-1627.238007,-7937.848249,565.0063776,-229.1110877,46.44827586,617.1670085,59.64067383,65.33078613,60.12,65.61,0.000673828,0.000786133,0,0.038084673
202,-10,0.9,4,0,1732,-6434,-834,2013,682,7546,-1334,-7986,730,-255,49,653,59.68608398,65.38376465,60.12,65.61,0.045410156,0.052978516,0,0
202,-10,0.9,4,0,1891,-6868.173533,-1097,1980.31082,594.0839525,7774.813317,-1260,-7994,786,-338,28,799,59.7,65.4,60.12,65.61,0.013916016,0.016235352,0,0
202,-10,0.9,4,0,2050,-7386,-1360,1944,544,7957,-1242,-7702,1124,-364,43,862,59.7,65.4,60.12,65.61,0,0,0,0
202,-10,0.9,4,0,1919.827984,-8300.131998,-1231.618526,1890.096747,559.1486486,8122.650226,-1256,-8102,988,-480,76,1094,59.73,65.4,60.15,65.6409589,0.03,0,0.03,0.030958904
202,-10,0.9,4,0,1678,-9434,-998,1814,603,8210,-1002,-7852,858,-561,65,1305,59.76,65.39732139,60.18,65.69886265,0.03,-0.002678608,0.03,0.057903744
202,-10,0.9,4,0,1412,-10582,-756,1686,839,8208,-916.8203924,-7847.001054,987,-644.3529024,86,1477.106089,59.76,65.34460411,60.18,65.73983,0,-0.052717281,0,0.040967352
202,-10,0.9,4,0,1445.105953,-11905.32384,-576.2601948,1556.302528,1375.421116,8080.270549,-882,-7842,1116,-732,107,1660,59.77251781,65.33,60.18,65.78486261,0.01251781,-0.014604112,0,0.045032608
202,-10,0.9,4,0,1526,-12678,-486,1421,1924,7826,-880,-7588,966,-829,100,1922,59.81770405,65.33,60.18,65.82817627,0.045186241,0,0,0.043313658
202,-10,0.9,4,0,1838.168355,-12431.75,-511.9375,1276.990762,2259.468926,7511.051001,-1064,-7660,942,-870,120,2033,59.82,65.19850741,60.15510269,65.83,0.00229595,-0.13149259,-0.02489731,0.001823733
202,-10,0.9,4,0,2469.706091,-11890,-569,1126.897164,2556.222379,7092.788292,-1287.321033,-7583.159639,621.8298906,-951.4667151,142.4964444,2248.475572,59.82,65.02680524,60.11486263,65.83,0,-0.171702167,-0.040240059,0
202,-10,0.9,4,0,3249.890781,-11348.25,-626.0625,970.1049843,2768.114642,6591.131437,-1420,-7466,322,-1033,169,2491,59.82,64.97759335,60.08957017,65.83,0,-0.049211897,-0.025292459,0
202,-10,0.9,4,0,4008,-11102,-652,806,2849,6026,-1236.14975,-7376.840361,348.2307692,-1073.176616,214.448,2669.709804,59.83391602,64.97,60.06931893,65.83,0.013916016,-0.007593345,-0.020251239,0
202,-10,0.9,4,0,4754,-11452,132,627,2559,5281,-1016,-7328,410,-1111,245,2840,59.87932617,64.97,60.06008698,65.83,0.045410156,0,-0.009231955,0
202,-10,0.9,4,0,4872.242823,-10810,519.6197307,484.1034298,2174.048642,4467.77503,-968,-7854,550,-1170,219,3027,59.88,65.005,60.06,65.87,0.000673828,0.035,-8.70E-05,0.04
202,-10,0.9,4,0,4912,-10168,690,359,1737,3707,-1382,-7616,600,-1214,268,3120,59.88067383,65.04,60.05932617,65.91,0.000673828,0.035,-0.000673828,0.04
202,-10,0.9,4,0,1558,-17710,-642,248,1275,3125,-2914,-7374,176,-1285,230,3242,59.92608398,65.04,60.01391602,65.91,0.045410156,0,-0.045410156,0
202,-10,0.9,4,0,2468,-8986,1478,304,806,1997,-4071.400553,-7191.872051,-200.7765043,-1295.364679,314.6813081,3183.5,59.94,65.02376465,60.01391602,65.92167666,0.013916016,-0.016235352,0,0.011676665
202,-10,0.9,4,0,2344.055333,-9165.92,2187.736962,193.864,314.9068698,1210.211729,-4656,-7100,-402,-1304,431,3125,59.94,64.97078613,60.05932617,65.97548403,0,-0.052978516,0.045410156,0.053807368
202,-10,0.9,4,0,1944.006,-9594.96,2741.754082,-68.768,-219.0647714,566.7974033,-4343.5,-7148.450478,-382.4937456,-1343.761344,479.3698442,3129.86871,59.94,64.97,60.06,66.02654275,0,-0.000786133,0.000673828,0.051058719
202,-10,0.9,4,0,1225.529,-10107.04,3138.902721,-382.232,-708.5898476,-14.12278725,-3656,-7295.201274,-321.816655,-1411.92675,511.1281503,3143.399894,59.94,64.97,60.06,66.05,0,0,0,0.023457249
202,-10,0.9,4,0,146.3013338,-10536.08,3378.03424,-644.864,-1066.343283,-613.4286519,-2968.5,-7542.351433,-216.7312369,-1476.378781,546.0723812,3163.981131,59.94,64.97,60.06,66.05,0,0,0,0
202,-10,0.9,4,0,-1336,-10716,3458,-755,-1205,-1312,-2656,-7892,-64,-1505,604,3190,59.94,64.94079178,60.07251781,66.0599115,0,-0.029208223,0.01251781,0.009911501
202,-10,0.9,4,0,-9192,-9696,-82,-566,-1189,-2182,-3118.791835,-10256.39936,1174.608937,-1454.267241,752.1170901,3265.550053,59.94,64.83535722,60.11770405,66.11028248,0,-0.105434561,0.045186241,0.050370976
202,-10,0.9,4,0,-3350,-10290,-2870,-278,-938,-2834,-3604,-12420,2940,-1395,990,3327,59.94,64.83,60.12,66.1690411,0,-0.005357216,0.00229595,0.058758619
202,-10,0.9,4,0,-1134.024005,-10591.39075,-1549.851852,115.0808982,-696.9921569,-3235.51281,-3630,-11374,4016,-1384,1335,3034,59.94,64.82521385,60.12,66.2,0,-0.004786154,0,0.030958904
202,-10,0.9,4,0,277.8213421,-10808.58426,901.8518519,525.9848936,-478.3294118,-3543.811961,-3332.226748,-11443.23024,1661.424495,-1536.173913,1441.578721,2876.230224,59.94,64.72452099,60.12,66.2,0,-0.10069286,0,0
202,-10,0.9,1,0,1856,-10892,2222,716,-383,-3667,-2720,-11632,-802,-1720,1513,2805,59.94,64.66339967,60.12,66.2,0,-0.06112132,0,0
202,-10,0.9,1,0.884955752,4068,-7962,2146,559,-670,-3531,-1729.719468,-12952.85773,-970.4244946,-1765.20271,1607.776758,2893.504868,59.94,64.62525027,60.12,66.2,0,-0.038149396,0,0
202,-10,0.9,1,1.769911504,6894.027845,-8813,1216.353799,-17.39455123,-199,-3942.5,-684,-14892,-1030,-1798,1662,3065,59.94,64.55191893,60.12,66.23808467,0,-0.073331338,0,0.038084673
202,-10,0.9,1,2.654867257,8602,-9664,-40,-480,272,-4354,81.94621639,-16608.91202,320,-1832.604858,1649,3279.964306,59.94,64.4628446,60.12,66.27,0,-0.08907433,0,0.031915327
202,-10,0.9,1,3.539823009,6015,-8977,-845.7516148,-400.638309,201.3806647,-4029.438013,478,-17588,1670,-1874,1614,3524,59.94,64.37460617,60.12,66.27,0,-0.088238432,0,0
202,-10,0.9,1,4.424778761,3428,-8290,-1260,-268,85,-3527,-1282,-16980,306,-1948,1482,3744,59.94,64.29030031,60.12,66.27,0,-0.084305859,0,0
202,-10,0.9,1,5.309734513,3920,-8562,482,-161,-5,-3207,-1454,-14668,482,-1813,1355,3528,59.94,64.20844469,60.12,66.27,0,-0.081855617,0,0
202,-10,0.9,1,6.194690265,3520.615684,-8093,1046.092742,-231,-2,-3003.52131,-3420.881952,-12245.57162,68.22222222,-1672.254346,1453.480835,3454.75227,59.94,64.12087104,60.12,66.31746094,0,-0.087573658,0,0.047460937
202,-10,0.9,1,7.079646018,3018,-7624,1266,-301,1,-2848,-6779.996531,-9862.31079,-700.2222222,-1516.315332,1664.628336,3411.465629,59.93928644,64.03317871,60.12,66.34407407,-0.000713558,-0.087692323,0,0.026613137
202,-10,0.9,1,7.96460177,2874,-8118,350,-283,-21,-2727,-8560,-8040,-1114,-1301,1862,3330,59.92809368,63.9302348,60.12,66.28508916,-0.011192764,-0.10294391,0,-0.058984911
202,-10,0.9,1,8.849557522,2975.975238,-7980,-866.948302,-168.4433597,-47.02590854,-2576.558819,-8323.347188,-6987.28244,-1003.231317,-856.6689626,1999.863694,2874.398566,59.90740355,63.83633549,60.10608398,66.27,-0.020690125,-0.093899313,-0.013916016,-0.015089163
202,-10,0.9,1,9.734513274,3188,-7842,-1612,-10,-71,-2402,-7956,-5988,-798,-345,2130,2306,59.88251564,63.79044788,60.06067383,66.27,-0.024887916,-0.045887607,-0.045410156,0
202,-10,0.9,1,10.61946903,3545.195792,-7940,-923.1415824,121.7703975,-91.28395062,-2201.459219,-7720,-4444,-574,1,2262,2028,59.84008325,63.79,60.07095417,66.28939174,-0.042432384,-0.000447883,0.010280342,0.019391739
202,-10,0.9,1,11.50442478,3924,-8038,184,195,-102,-1974,-5918,-846,510,504,2429,1327,59.82,63.78422959,60.09676601,66.34113308,-0.020083253,-0.005770405,0.025811837,0.051741341
202,-10,0.9,2,12.38938053,4194.82897,-7822,1176.141582,153.769685,-97,-1721.777915,-3364.608332,3749.1467,26.66496945,663.9534735,1928.758671,218.058944,59.82,63.72980256,60.11756908,66.40009,0,-0.05442703,0.020803072,0.058956924
202,-10,0.9,2,13.27433628,4334,-7606,1750,77,-92,-1435,-1606,6526,-910,768,1248,-585,59.80285365,63.72,60.12,66.44675791,-0.017146346,-0.009802565,0.002430921,0.046667903
202,-10,0.9,2,14.15929204,4248,-7930,1356,-8,-93,-1088,-1407.294359,4153.755867,-2390.664969,851.6387746,920.2691506,-686.8294898,59.76059841,63.72,60.12,66.49096738,-0.042255241,0,0,0.044209478
202,-10,0.9,2,15.04424779,4438,-8196,944,-55,-85,-894,-1220,1044,-3418,962,728,-788,59.76,63.72,60.12,66.53489781,-0.000598412,0,0,0.043930431
202,-10,0.9,2,15.92920354,4191.569378,-8000,756.3070454,-72.2148247,-94.5,-614.3614634,35.86566618,-160.9752242,-1800.70692,1534.184944,673.4424132,-1580.01919,59.76,63.72,60.11742188,66.57871085,0,0,-0.002578125,0.043813037
202,-10,0.9,2,16.81415929,3742,-7804,664,-86,-104,-367,1126,-974,396,2078,619,-2566,59.76,63.72,60.069375,66.62185583,0,0,-0.048046875,0.043144973
202,-10,0.9,2,17.69911504,3309.507761,-7908,647.2197314,-105.4694675,-94.5,-237.8507313,1018,-1526,1278,2144,432,-3009,59.75505394,63.72577041,60.07898438,66.66750381,-0.004946061,0.005770405,0.009609375,0.045647985
202,-10,0.9,2,18.5840708,2766,-8012,630,-128,-85,-147,-406,-2816,142,2345,195,-3703,59.73264401,63.75191533,60.12,66.72,-0.022409933,0.026144922,0.041015625,0.052496189
202,-10,0.9,2,19.46902655,1950,-7740,536,-155,-87,-83,-275.3333333,-3006.370908,-787.8745502,2511.818644,-13.40136367,-4203.876656,59.7084022,63.78019744,60.12,66.79792237,-0.024241807,0.028282109,0,0.077922366
202,-10,0.9,2,20.3539823,1620.358378,-7703.84106,467.9057052,-152,-58.5,-114.8275862,-32.66666667,-3095.620237,-1581.505847,2663.923406,-209.6673284,-4627.807477,59.7,63.7879205,60.12,66.88871529,-0.008402198,0.007723067,0,0.090792929
202,-10,0.9,2,21.23893805,1436,-7692,434,-149,-30,-154,98,-3236,-1934,2822,-416,-5059,59.7,63.74048588,60.12,66.99026226,0,-0.047434625,0,0.101546962
202,-10,0.9,2,22.12389381,1348,-8152,440,-156,-40,-164,-24,-3592,-1952,2997,-647,-5530,59.7,63.68933523,60.08570731,67.04656374,0,-0.051150651,-0.034292693,0.056301484
202,-10,0.9,2,23.00884956,1392,-8114,444,-166,-17,-298,-190,-3972,-1922,3016,-798,-5874,59.7,63.6504632,60.00119682,67.08453118,0,-0.038872025,-0.084510482,0.037967442
202,-10,0.9,2,23.89380531,1355.746528,-8181,380,-182.2040134,-24.455,-415.1077314,-307.2209421,-4679.461654,-2164,2991.596966,-1001.171299,-6158.885975,59.7,63.73305664,60.0355957,67.1674514,0,0.082593439,0.034398878,0.082920213
202,-10,0.9,2,24.77876106,1286,-8248,316,-196,-38,-535,-476,-5646,-2406,2946,-1271,-6360,59.7,63.79,60.06,67.2713498,0,0.056943359,0.024404297,0.103898407
202,-10,0.9,2,25.66371681,1178.253472,-7971.326087,432,-201.1788212,-55.545,-680.810247,-1200,-6882,-2318,2895,-1694,-6448,59.7,63.79,60.06,67.37847012,0,0,0,0.107120313
202,-10,0.9,2,26.54867257,1104,-7676,548,-205,-67,-834,-1249.161685,-7944.134082,-1816.824892,2871.507668,-2029.779586,-6470.710234,59.72016461,63.79,60.06,67.43829228,0.020164609,0,0,0.059822168
202,-10,0.9,2,27.43362832,1118,-7654,488,-209,-52,-979,-1292,-8680,-1188,2845,-2296,-6487,59.75946502,63.79,60.06,67.46967224,0.039300412,0,0,0.031379957
202,-10,0.9,2,28.31858407,1026,-7738,518,-227,-73,-1168,-1656.589258,-9020.378163,-787.1062534,2749.820615,-2523.328405,-6510.539616,59.76,63.82183838,60.0955957,67.47,0.000534979,0.031838379,0.035595703,0.000327758
202,-10,0.9,2,29.20353982,1047.036029,-7801.754239,626.2224026,-258.086671,-92.39382277,-1353.781848,-2166,-9206,-578,2620,-2641,-6535,59.76,63.87333697,60.12,67.47,0,0.051498591,0.024404297,0
202,-10,0.9,2,30.08849558,1104.429412,-7855.474108,807.7532468,-300.9385217,-111.6134124,-1537.503586,-2577.101245,-9286.35948,-567.7446938,2511.254317,-2613.555051,-6563.011309,59.76,63.91779354,60.12,67.47,0,0.044456566,0,0
202,-10,0.9,2,30.97345133,1189.608088,-7910.956923,978.4074675,-350.5711116,-126.5262959,-1724.223532,-2952.504004,-9339.539597,-561.8723469,2404.19189,-2557.887879,-6590.56121,59.76,63.95517032,60.13615713,67.45487346,0,0.037376784,0.016157134,-0.015126535
202,-10,0.9,2,31.85840708,1294,-7980,1054,-402,-133,-1919,-3124,-9376,-560,2297,-2514,-6603,59.76,63.99,60.18,67.4,0,0.034829681,0.043842866,-0.054873465
202,-10,0.9,2,32.74336283,1492.27549,-8106.938912,926.9291378,-460.0018324,-133.4440467,-2143.529686,-3132,-9400,-594,2189,-2495,-6514,59.76,64.03063943,60.22384287,67.26108354,0,0.040639434,0.043842866,-0.138916458
202,-10,0.9,2,33.62831858,1764,-8194,756,-518,-134,-2343,-3192,-9492,-536,2138,-2485,-6401,59.76,64.07229797,60.24,67.151174,0,0.04165854,0.016157134,-0.109909544
202,-10,0.9,2,34.51327434,2044,-7572,690,-564,-162,-2465,-3192,-9770,-152,2027,-2381,-6379,59.76,64.11323451,60.24,67.1067797,0,0.040936533,0,-0.044394293
202,-10,0.9,2,35.39823009,2106,-8254,982,-661,-206,-2506,-3070.842511,-9771.132143,95.50917993,1936.664788,-2259.797399,-6314.888873,59.76,64.16209466,60.25898438,67.0656175,0,0.048860157,0.018984375,-0.041162203
202,-10,0.9,2,36.28318584,2385.026036,-8010.701479,873.6774664,-680.1067429,-223.6504346,-2541.271436,-2900,-9772,214,1863,-2107,-6203,59.76,64.2,60.3,67.02,0,0.037905336,0.041015625,-0.045617502
202,-10,0.9,2,37.16814159,2875.607627,-7542.514069,630.2438216,-689.6242755,-235.1061647,-2571.913496,-2800.474506,-9958.669924,210.7407407,1807.887289,-1883.424373,-6025.234849,59.76,64.2,60.3,66.90907138,0,0,0,-0.110928622
202,-10,0.9,2,38.05309735,3346,-7242,374,-705,-249,-2585,-2704.856257,-10422.70639,202.5925926,1763.815147,-1588.635673,-5757.247731,59.76,64.2,60.3084022,66.87980256,0,0,0.008402198,-0.029268813
202,-10,0.9,2,38.9380531,3710,-7186,136,-746,-271,-2555,-2619.472467,-11025.28352,192,1724.936962,-1247.566393,-5411.334666,59.76,64.2,60.35505394,66.93422959,0,0,0.04665174,0.05442703
202,-10,0.9,2,39.82300885,3824,-6980,310,-754,-265,-2553,-2550.650351,-11627.57542,181.4074074,1685.406118,-885.1490261,-4999.791675,59.74384287,64.17416853,60.36,66.94,-0.016157134,-0.025831468,0.004946061,0.005770405
202,-10,0.9,2,40.7079646,3474.15735,-7027.735507,511.1784246,-806.1533434,-311.5,-2555.100629,-2504.717124,-12090.75621,173.2592593,1639.376002,-526.3160642,-4534.914779,59.7,64.13,60.36,66.94,-0.043842866,-0.044168532,0,0
202,-10,0.9,2,41.59292035,3048,-7150,688,-861,-358,-2561,-2488,-12276,170,1581,-196,-4029,59.65615713,64.13,60.39785874,66.97949936,-0.043842866,0,0.037858742,0.039499356
202,-10,0.9,2,42.47787611,2914.84265,-7727.134791,821.912069,-873.6364836,-340.5,-2627.923295,-2721.940085,-10203,1675,1517.119985,135.3038024,-3343.07075,59.64,64.13,60.42,67.03543692,-0.016157134,0,0.022141258,0.055937564
202,-10,0.9,2,43.36283186,2858,-8360,890,-883,-323,-2712,-3206,-8130,3180,1392,405,-2503,59.64,64.13,60.42,67.08561165,0,0,0,0.050174725
202,-10,0.9,2,44.24778761,3875,-8539.022673,844,-898.4255319,-404.1288318,-2751.476077,-3936,-15666,478,448,546,-1609,59.6644043,64.13,60.42,67.09,0.024404297,0,0,0.004388355
202,-10,0.9,2,45.13274336,4892,-8692,798,-908,-553,-2770,-2403.259259,-12898.14815,2363.333333,477.5555556,840.7807105,-539.838133,59.7,64.13124829,60.41946502,67.08912605,0.035595703,0.001248285,-0.000534979,-0.000873951
202,-10,0.9,2,46.01769912,3512,-8954,1638,-869,-711,-2673,443.2592593,-7757.851852,5864.666667,532.4444444,1284.979416,519.9698224,59.7,64.22294925,60.38016461,67.01350461,0,0.09170096,-0.039300412,-0.075621442
202,-10,0.9,2,46.90265487,3252,-8766,1152,-990,-910,-2753,1976,-4990,7750,562,1803,1000,59.7,64.27,60.36,66.91281843,0,0.047050754,-0.020164609,-0.100686182
202,-10,0.9,2,47.78761062,2818,-11812,-164,-1297,-1058,-2641,566,-10090,3250,194,2456,653,59.7,64.27,60.36,66.81781526,0,0,0,-0.095003163
202,-10,0.9,2,48.67256637,957.8547819,-13062.18439,450,-1311.644747,-1064.418812,-2959.413025,3578,-8385.235925,342.0150387,-29.4408984,2350.649691,1194.786377,59.7,64.27,60.36,66.72250494,0,0,0,-0.095310327
202,-10,0.9,2,49.55752212,-578,-13582,1064,-1316,-1069,-3381,6590,-5808,-2154,-286,2067,2068,59.7,64.27,60.36,66.64,0,0,0,-0.082504936
202,-10,0.9,2,50.44247788,-366.672,-13505.53878,842.896,-1307.533733,-1081.061821,-3573.399628,5468,-4288,-4762,-905,997,2699,59.7,64.27,60.40101563,66.5992006,0,0,0.041015625,-0.040799398
202,-10,0.9,3,51.32743363,137.264,-13291.89634,315.648,-1283.841198,-1099.964961,-3736.541404,5386,-7062,-3720,-988,285,2991,59.7,64.27,60.42,66.53349301,0,0,0.018984375,-0.065707594
202,-10,0.9,3,52.21238938,738.736,-12964.68451,-313.648,-1247.481797,-1124.237191,-3868.383365,3265.388775,-8963.033928,-795.94165,-550,161.557754,3472.877075,59.7,64.27,60.42,66.39221396,0,0,0,-0.14127905
202,-10,0.9,3,53.09734513,1242.672,-12547.51512,-840.896,-1201.01493,-1152.406281,-3966.883551,530,-9892,1420,-112,88,3926,59.7,64.27,60.39785874,66.25106245,0,0,-0.022141258,-0.141151511
202,-10,0.9,3,53.98230088,1454,-12064,-1062,-1147,-1183,-4030,-798.7155769,-9833.843926,1074.0625,-282.9375,-12.00815989,4215.6375,59.7,64.27,60.36,66.12,0,0,-0.037858742,-0.131062448
202,-10,0.9,3,54.86725664,1393,-10904.79566,-761.6425532,-1028.329801,-1221.900251,-4071.185982,-1936.636068,-9652.417137,313,-659,-116.0905866,4471.983333,59.65898438,64.31785156,60.36,66.03059986,-0.041015625,0.047851563,0,-0.089400141
202,-10,0.9,3,55.75221239,1332,-10000,-370,-913,-1270,-4090,-2731.238526,-9337.281779,-448.0625,-1035.0625,-197.87772,4655.0875,59.64,64.34,60.36,65.94293348,-0.018984375,0.022148437,0,-0.087666377
202,-10,0.9,3,56.63716814,3480.9933,-10013.04453,-261.4237119,-868.4362416,-1316.236058,-4046.364458,-3030,-8878,-794,-1206,-231,4725,59.64,64.34,60.36,65.84822069,0,0,0,-0.094712788
202,-10,0.9,3,57.52212389,6912,-10058,-122,-849,-1386,-3958,-2736,-6822,-100,-1000,-158,4571,59.64,64.34,60.36,65.75224031,0,0,0,-0.095980384
202,-10,0.9,3,58.40707965,9320,-11678,968,-886,-1594,-3833,-3826,-7978,-318,-969,-53,4405,59.64059841,64.34,60.36,65.65160271,0.000598412,0,0,-0.100637602
202,-10,0.9,3,59.2920354,8360.914043,-10318.08638,1827.157715,-992.6626214,-1742.538339,-3300.764924,-3825.893561,-7973.435185,-315.6681108,-936.7277488,-27.92564488,4202.152946,59.68285365,64.34,60.36,65.56985672,0.042255241,0,0,-0.081745983
202,-10,0.9,3,60.17699115,6972,-7936,2302,-1074,-1894,-2613,-3825.486688,-7960.814815,-308.5406048,-905.6409414,-5.862177036,3979.723963,59.7,64.34980256,60.35513816,65.52796841,0.017146346,0.009802565,-0.004861842,-0.041888315
202,-10,0.9,3,61.0619469,6264,-5728,2350,-1074,-2117,-2170,-3824.648043,-7941.75,-296.4197248,-875.0942491,13.3487049,3740.029287,59.7,64.40422959,60.31353201,65.50735197,0,0.05442703,-0.041606144,-0.020616445
202,-10,0.9,3,61.94690265,4867.844473,297.5585038,2242.348724,-1061.236074,-2371.725915,-1455.501957,-3823.24629,-7917.851852,-279.1077132,-844.4423435,29.86530228,3485.385154,59.7,64.41,60.26190834,65.49090248,0,0.005770405,-0.051623675,-0.016449486
202,-10,0.9,4,62.83185841,3528,4834,1942,-1026,-2520,-858,-3821.150092,-7890.731481,-256.4068128,-813.0398961,43.84591646,3218.1078,59.7,64.41125436,60.24,65.46659774,0,0.001254363,-0.02190834,-0.024304737
202,-10,0.9,4,63.71681416,2958.974735,2804.710005,-1632.348724,-788.170195,-1652.641186,-673.7695828,-3818.228114,-7862,-228.1192661,-780.2415784,55.4488488,2940.513462,59.7,64.50470724,60.24,65.41303787,0,0.093452876,0,-0.053559877
202,-10,0.9,4,64.60176991,2420,-56,-5014,-320,-240,-496,-3814.349018,-7833.268519,-194.0473157,-745.4020619,64.83240065,2654.918377,59.7,64.57321781,60.22868313,65.4,0,0.068510575,-0.011316872,-0.013037865
202,-10,0.9,4,65.48672566,1446,-1380,-2000,453,814,-47,-3809.381468,-7806.148148,-153.9932042,-707.8760181,72.15487336,2363.638779,59.7,64.60848712,60.18444444,65.4,0,0.035269302,-0.044238683,0
202,-10,0.9,4,66.37168142,35.82029872,-1243,885.1290857,734.5760605,1017.291675,967.3830586,-3803.194128,-7782.25,-107.7591743,-667.0181185,77.5745683,2068.990907,59.7,64.64778875,60.18,65.42847168,0,0.039301634,-0.004444444,0.02847168
202,-10,0.9,4,67.25663717,-852,-1106,2466,908,1088,2046,-3795.655661,-7763.185185,-55.14746857,-622.1830346,81.24978682,1773.290995,59.7,64.69612709,60.18,65.47,0,0.048338345,0,0.04152832
202,-10,0.9,4,68.14159292,-229.3147762,-1237.703704,1896.828715,1032.581708,1085.267077,2663.710954,-3786.634731,-7750.564815,4.039670404,-572.7254379,83.33883026,1478.855281,59.7,64.78348701,60.18,65.47,0,0.087359915,0,0
202,-10,0.9,4,69.02654867,950.703781,-1482.296296,738.7685415,1129.893493,1076.978598,3156.43464,-3776,-7746,70,-518,84,1188,59.7,64.84948251,60.18,65.47,0,0.065995497,0,0
202,-10,0.9,4,69.91150442,1656,-1614,-184,1259,1063,3674,-3074,-8020,264,-436,72,887,59.7,64.88951531,60.18,65.47,0,0.040032801,0,0
202,-10,0.9,4,70.79646018,1757.979123,-1580,-709.5989712,1495.685936,948.1808969,4283.226432,-2768.635844,-8255.596192,245.9489796,-386.4596172,79.5,738.96408,59.7,64.96019021,60.18,65.43808467,0,0.070674908,0,-0.031915327
202,-10,0.9,4,71.68141593,1798,-1546,-970,1771,738,4908,-2540,-8380,206,-353,87,674,59.7,65.04827865,60.17983805,65.40010376,0,0.08808844,-0.00016195,-0.037980917
202,-10,0.9,4,72.56637168,1689.388889,-2005.409279,-809.2592593,2026.387418,448.9301029,5540.618508,-2296,-7498,132,-334,85,699,59.7,65.13255572,60.16444444,65.41106182,0,0.084277067,-0.015393605,0.010958067
202,-10,0.9,4,73.45132743,1467.444444,-2986.596336,-510.7407407,2272.253721,95.58827232,6168.776937,-2044.305027,-7626.471947,206.8623853,-335.6525424,66.17346939,735.2372735,59.69756908,65.20973521,60.13803156,65.43487572,-0.002430921,0.077179491,-0.026412889,0.023813898
202,-10,0.9,4,74.33628319,1288,-3894,-350,2454,-174,6721,-1810,-7830,336,-340,49,778,59.67676601,65.28213352,60.12063444,65.46414339,-0.020803072,0.072398304,-0.017397112,0.029267672
202,-10,0.9,4,75.22123894,1181.4375,-4561.391511,-742.3046556,2560.025504,-349.5924156,7179.727504,-1574.806338,-8004.528053,450.9399862,-358.8200208,85,818.6838841,59.65095417,65.34857818,60.12,65.5084154,-0.025811837,0.066444666,-0.000634444,0.044272003
202,-10,0.9,4,76.10619469,1128,-5090,-1320,2646,-436,7563,-1444,-8104,568,-393,121,872,59.64067383,65.40532058,60.12,65.53921387,-0.010280342,0.056742393,0,0.030798471
202,-10,0.9,4,76.99115044,1340,-5400,-1632,2734,-429,7857,-1474.074074,-7898.148148,703.1661543,-444.7981472,111.4074074,995.335541,59.68608398,65.45930674,60.12,65.48623535,0.045410156,0.053986169,0,-0.052978516
202,-10,0.9,4,77.87610619,1218,-5826,-1444,2838,-434,8276,-1529.925926,-7515.851852,836.0275216,-513.6342408,93.59259259,1166.989314,59.7,65.47,60.13251781,65.47,0.013916016,0.010693255,0.01251781,-0.016235352
202,-10,0.9,4,78.76106195,1080.5027,-6168.386123,-1451.585445,2862.683822,-421.4570424,8465.783224,-1560,-7310,896,-578,84,1294,59.7,65.47,60.17770405,65.47,0,0,0.045186241,0
202,-10,0.9,4,79.6460177,932.393251,-6511.291439,-1476.504224,2876.971019,-386.0251959,8595.446486,-1442,-8088,834,-629,151,1349,59.72735599,65.50191533,60.18,65.43808467,0.027355994,0.031915327,0.00229595,-0.031915327
202,-10,0.9,4,80.53097345,776,-7108,-1522,2886,-331,8750,-960,-7732,758,-730,172,1629,59.76,65.53954766,60.18,65.40040488,0.032644006,0.03763233,0,-0.037679796
202,-10,0.9,4,81.4159292,606,-9330,-1896,2892,-167,8985,-842.7319588,-7674.43775,815.5864662,-823.738809,167.8333333,1853.65512,59.76,65.49969819,60.18,65.43838733,0,-0.03984947,0,0.037982457
202,-10,0.9,4,82.30088496,857,-11012.60909,-1048,2863.299674,162.0459887,8949.377953,-800,-7628,906,-913,162,2058,59.76,65.43544291,60.18,65.52588293,0,-0.064255275,0,0.087495599
202,-10,0.9,4,83.18584071,1108,-12030,-200,2803,623,8869,-1212.306863,-7499.636393,981.4135338,-1000.468606,158.6666667,2264.773236,59.76,65.34743981,60.18,65.67359291,0,-0.088003097,0,0.147709979
202,-10,0.9,4,84.07079646,730,-12360.98862,-381.7437695,2689.962916,1212.044145,8712.985684,-1736,-7336,1024,-1081,157,2454,59.76,65.25412711,60.17845625,65.73432073,0,-0.093312706,-0.001543752,0.06072782
202,-10,0.9,4,84.95575221,352,-12494,-718,2585,1882,8477,-1907.97602,-7154.933731,907.0276396,-1149.469452,184.2408377,2612.795736,59.76067383,65.17409008,60.17276276,65.78036033,0.000673828,-0.080037032,-0.005693486,0.046039602
202,-10,0.9,4,85.84070796,422.3959132,-11256,-1178.256231,2556.773995,2620.789152,8163.10303,-2024.325897,-6972.91131,656.2775014,-1211.906469,240.1483421,2756.151212,59.80608398,65.11997294,60.1638863,65.81762711,0.045410156,-0.054117136,-0.00887646,0.03726678
202,-10,0.9,4,86.72566372,612,-10018,-1484,2525,3214,7791,-2154,-6890,422,-1275,286,2897,59.82,65.11,60.15289725,65.84786604,0.013916016,-0.009972941,-0.010989052,0.030238924
202,-10,0.9,4,87.61061947,1966.479949,-10221.62269,-972.4312977,2305.57108,3546.019802,7400.921569,-2312.594676,-6901.634751,221.9447208,-1349.755759,308.3704046,3058.24524,59.82,65.11,60.14086599,65.87282208,0,0,-0.012031263,0.024956037
202,-10,0.9,4,88.49557522,3484,-10692,-452,1970,3700,7007,-2488.976237,-6940.380614,34.7501382,-1425.188337,325.9077668,3217.108279,59.85,65.11,60.12886289,65.89424019,0.03,0,-0.012003092,0.021418116
202,-10,0.9,4,89.38053097,3864,-11692,-442,1676,3642,6647,-2712,-7012,-48,-1475,348,3318,59.88,65.11267861,60.11780075,65.91371993,0.03,0.002678608,-0.011062143,0.019479736
202,-10,0.9,4,90.26548673,4097.448801,-10674.14815,185.1809724,1304.833913,3150.946699,6101.819379,-3062,-7684,-10,-1495,384,3355,59.88,65.16539589,60.10407491,65.92859987,0,0.052717281,-0.01372584,0.014879946
202,-10,0.9,4,91.15044248,4289.34509,-8783.851852,1332.146042,896.4318092,2291.077097,5373.48247,-3341.865854,-7783.376063,270.9911718,-1504.71561,521.7692097,3381.647859,59.88,65.18,60.08819143,65.93975995,0,0.014604112,-0.015883485,0.011160074
202,-10,0.9,4,92.03539823,4614,-7766,1948,534,1702,4453,-3486,-7866,742,-1513,717,3410,59.88,65.18,60.07341169,65.95058144,0,0,-0.014779734,0.010821494
202,-10,0.9,4,92.92035398,5656,-18092,-742,258,1536,3034,-3397.901786,-8119.722607,1392.829694,-1521.568279,914.8849653,3461.856579,59.88,65.17380842,60.06299711,65.96444565,0,-0.006191576,-0.010414587,0.013864208
202,-10,0.9,4,93.80530973,8700,-11004,88,43,933,1320,-3200,-8504,1822,-1536,1065,3510,59.88,65.15286251,60.06,65.98533744,0,-0.020945915,-0.002997105,0.020891786
202,-10,0.9,4,94.69026549,8374.967856,-11081,1076.006644,-372.4011962,374.9158112,-1055.443693,-2672.098214,-9150.678613,1075.125606,-1740.852961,1131.156885,3528.492798,59.88,65.12451475,60.06,66.02718321,0,-0.028347757,0,0.041845774
202,-10,0.9,4,95.57522124,7312,-11158,2620,-658,-419,-2530,-2254,-9596,-234,-1963,1160,3549,59.88,65.09487812,60.06,66.0713953,0,-0.029636636,0,0.044212094
202,-10,0.9,4,96.46017699,-7640,-8314,6996,166,-2664,-590,-2777.873376,-8639,-1756.125606,-2002.144134,1140,3647.521591,59.88,65.05845951,60.06,66.11547867,0,-0.036418602,0,0.044083361
202,-10,0.9,4,97.34513274,-4948,-12864,1956,-204,-2719,-2129,-3616,-7682,-2716,-2028,1120,3730,59.88,65.01315887,60.09264401,66.17255946,0,-0.04530064,0.032644006,0.057080797
202,-10,0.9,4,98.2300885,-4408.709552,-11926.51852,-965.2956388,-259.3356906,-2085.440933,-3263.322259,-4208,-11374,-1916,-2056,1276,3724,59.88229595,64.95679761,60.12,66.2,0.00229595,-0.056361264,0.027355994,0.027440538
202,-10,0.9,4,99.11504425,-4159.399031,-10185.48148,-3162.758931,-290.3345119,-841.4374213,-4231.985424,-2803.156764,-14313.50256,-19.74710032,-2191.313899,1251,3783.574468,59.92748219,64.86738204,60.12,66.2,0.045186241,-0.089415572,0,0
202,-10,0.9,4,100,-3546,-9248,-4030,-300,28,-5200,-986,-16552,1458,-2345,1226,3899,59.94,64.80642128,60.12,66.23479004,0.01251781,-0.060960754,0,0.034790039
202,-10,0.9,1,0,2586,-13150,1570,340,274,-6222,-207.795383,-18260.01984,1630.344588,-2422.205976,1276.296296,4036.608472,59.94,64.76545918,60.12,66.34831543,0,-0.040962101,0,0.113525391
202,-10,0.9,1,0.877192982,9922.322119,-14635.38677,2007.126059,-193.8320168,412.5443251,-6711.13529,373.5467529,-19648.7877,1733.616738,-2481.380766,1369.703704,4208.637748,59.94,64.69094203,60.12,66.35,0,-0.074517152,0,0.00168457
202,-10,0.9,1,1.754385965,14260,-15240,2270,-821,476,-6924,602,-20222,1768,-2505,1420,4389,59.94,64.60300236,60.12,66.35,0,-0.087939669,0,0
202,-10,0.9,1,2.631578947,5980,-4512,2682,-942,-286,-6407,-570,-16936,1512,-2256,1111,4575,59.94,64.51485187,60.12,66.35,0,-0.088150489,0,0
202,-10,0.9,1,3.50877193,4644,-7450,-1616,-701,-120,-5401,-3615.796972,-12752.55218,656.1276552,-2060.20006,1164.189584,4551.846041,59.94,64.45720964,60.12,66.35,0,-0.057642231,0,0
202,-10,0.9,1,4.385964912,4598,-7380,-2636,-465,-120,-5005,-5882,-9444,-18,-1856,1279,4496,59.94,64.4161042,60.12,66.35,0,-0.041105438,0,0
202,-10,0.9,1,5.263157895,4577.012405,-7542.645643,-1567.333333,-281.1454202,-111.1851852,-4603.734387,-5870.981545,-8163.90103,115.6602607,-1608.823501,1527.810664,4317.856907,59.94,64.30585885,60.12,66.35,0,-0.110245357,0,0
202,-10,0.9,1,6.140350877,4562.545964,-7854.180175,417.3333333,-127.4060434,-94.81481481,-4211.18917,-5831.184636,-7473.98383,491.780782,-1337.449709,1942.901997,3936.471716,59.93742188,64.18005964,60.12,66.3513963,-0.002578125,-0.125799211,0,0.001396296
202,-10,0.9,1,7.01754386,4536,-8050,1486,-63,-86,-3886,-5752.496954,-6922.116114,1073.071173,-1023.064167,2396.987998,3385.258071,59.889375,64.0920431,60.12,66.39000814,-0.048046875,-0.088016532,0,0.038611846
202,-10,0.9,1,7.894736842,4274.021059,-8093.893899,1111.111111,-102.9259259,-91.44444444,-3655.277923,-5624.806182,-6056.165599,1822.241043,-646.852416,2762.782666,2697.629618,59.88,64.01238586,60.12,66.44999186,-0.009375,-0.079657246,0,0.059983717
202,-10,0.9,1,8.771929825,3828.121641,-8123.280283,414.8888889,-177.0740741,-101.5555556,-3463.199798,-5438,-4424,2702,-190,2913,1907,59.88,63.94146183,60.12,66.4886037,0,-0.07092403,0,0.038611846
202,-10,0.9,2,9.649122807,3592,-8134,40,-217,-107,-3244,-1876,3796,4412,556,2393,556,59.85,63.89290401,60.12,66.49,-0.03,-0.048557819,0,0.001396296
202,-10,0.9,2,10.52631579,4059.925311,-8092.125,65.1724846,-149.0858434,-93,-2965.151112,-2202,4496.342004,166,208,1164.428886,293.9316416,59.82,63.85093312,60.11742188,66.49244863,-0.03,-0.041970885,-0.002578125,0.00244863
202,-10,0.9,2,11.40350877,4666,-8000,132,-72,-79,-2633,-2528,4714,-4080,-140,272,76,59.82,63.8042407,60.069375,66.54732877,0,-0.046692425,-0.048046875,0.054880137
202,-10,0.9,2,12.28070175,4921.074689,-7773.875,593.8275154,-56.91415663,-95.5,-2197.083873,-2191.980921,4120.534336,-3895.773282,298.4654247,276.9259259,-488.4328839,59.81505394,63.77232139,60.07714635,66.59534187,-0.004946061,-0.031919309,0.007771346,0.048013102
202,-10,0.9,2,13.15789474,5038,-7598,1014,-51,-112,-1749,-1391.961842,2787.95756,-3342.657676,1188.486405,286.0740741,-1330.685179,59.79264401,63.74496134,60.11940159,66.63566149,-0.022409933,-0.027360045,0.042255241,0.040319625
202,-10,0.9,2,14.03508772,4863.403452,-7736.318533,965.3984772,-52.05645161,-111.505102,-1382.998108,-440,1388,-2420,1892,291,-2235,59.7684022,63.72559014,60.08735599,66.68211587,-0.024241807,-0.019371206,-0.032045593,0.046454379
202,-10,0.9,2,14.9122807,4506,-7940,858,-55,-110,-1065,766,94,1474,2199,238,-3180,59.76,63.72,60.06,66.72895704,-0.008402198,-0.005590138,-0.027355994,0.046841167
202,-10,0.9,2,15.78947368,3984,-8050,660,-68,-99,-807,693.8927365,-601.4361441,1194.446827,2437.369474,95.14775508,-3845.786666,59.76,63.72,60.06,66.77226338,0,0,0,0.043306343
202,-10,0.9,2,16.66666667,3409.098464,-8097.795082,724.779661,-66,-87.86134264,-613.7262357,499.5182094,-1161.331594,521.7404807,2648.714024,-142.7731437,-4417.580691,59.76,63.73418914,60.06,66.81563332,0,0.014189142,0,0.043369939
202,-10,0.9,2,17.54385965,2942,-8118,828,-64,-78,-512,215.7973141,-1609.308972,-295.189279,2841.273836,-413.86792,-4918.881383,59.76,63.78554271,60.06,66.86388362,0,0.051353564,0,0.048250301
202,-10,0.9,2,18.42105263,2712,-7770,900,-86,-71,-506,-124.3490542,-1968.9909,-1007.412692,3023.289099,-656.2417976,-5373.18805,59.7244043,63.8388388,60.06,66.95709668,-0.035595703,0.05329609,0,0.093213055
202,-10,0.9,2,19.29824561,2449.690778,-7706.340711,791.6296296,-87.78062678,-68.37037037,-526.7407407,-488,-2264,-1366,3203,-808,-5804,59.7,63.85422959,60.06,67.03501049,-0.024404297,0.015390798,0,0.077913816
202,-10,0.9,2,20.1754386,2194.623167,-7669.725911,590.3703704,-88.72364672,-66.62962963,-565.2592593,-1131.107401,-2454.818318,-1451.698167,3393.724017,-871.8484432,-6204.791065,59.7,63.79980256,60.06,67.07119803,0,-0.05442703,0,0.036187535
202,-10,0.9,2,21.05263158,2080,-7658,482,-89,-66,-586,-1592,-2674,-1488,3541,-927,-6553,59.7,63.79610068,60.04285365,67.13454387,0,-0.003701888,-0.017146346,0.063345841
202,-10,0.9,2,21.92982456,2426,-8036,558,-86,-100,-584,-1263,-3332.689172,-1449.656897,3620.668922,-1005.533538,-6861.344834,59.7,63.82340958,60.00059841,67.23078094,0,0.027308902,-0.042255241,0.096237068
202,-10,0.9,2,22.80701754,2204.124789,-8241.147319,907.7537978,-136.8601896,-111.5519276,-642.3316441,-934,-4296,-1362,3672,-1088,-7117,59.7,63.85188719,60.0063997,67.3285174,0,0.028477614,0.00580129,0.097736465
202,-10,0.9,2,23.68421053,1834,-8334,1200,-213,-120,-753,-1090.335975,-5355.392548,-1178.99789,3701.105203,-1154.476559,-7305.256792,59.7,63.85422959,60.02492533,67.43171673,0,0.002342403,0.018525627,0.103199328
202,-10,0.9,2,24.56140351,1543.22404,-8022.896066,977,-267.6398104,-133.0609756,-872.4857085,-1352,-6512,-908,3725,-1233,-7468,59.7,63.79980256,60.04968779,67.52183175,0,-0.05442703,0.02476246,0.090115017
202,-10,0.9,2,25.43859649,1240,-7628,754,-297,-141,-1028,-1564,-7662,-578,3753,-1378,-7626,59.71401541,63.81214844,60.08215915,67.59008698,0.014015408,0.012345873,0.032471356,0.068255227
202,-10,0.9,2,26.31578947,896,-7510,1140,-287,-125,-1257,-1962.387103,-8563.347087,-475.6550704,3725.905099,-1526.135987,-7701.730204,59.76,63.86,60.12,67.63,0.045984592,0.047851563,0.037840855,0.039913024
202,-10,0.9,2,27.19298246,1059.907285,-7600,1064.083969,-333.818408,-137.8134328,-1507.041647,-2454,-9190,-390,3679,-1646,-7742,59.80195915,63.86,60.13900561,67.61655826,0.041959152,0,0.019005615,-0.01344174
202,-10,0.9,2,28.07017544,1292,-7690,960,-405,-159,-1740,-2932,-9470,-228,3637,-1710,-7754,59.82,63.86041032,60.15548132,67.58047478,0.018040848,0.000410316,0.016475702,-0.036083481
202,-10,0.9,2,28.94736842,1403.602149,-7681.727273,920.02821,-450.146131,-173.8247251,-1917.388982,-3136,-9774,142,3585,-1677,-7804,59.82,63.87312883,60.16845421,67.52811217,0,0.01271851,0.012972895,-0.05236261
202,-10,0.9,2,29.8245614,1500,-7662,878,-488,-192,-2082,-3126.210799,-9822.85227,111.2053109,3519.682201,-1609.534299,-7784.053587,59.82,63.89860669,60.1769514,67.46583304,0,0.025477864,0.008497193,-0.06227913
202,-10,0.9,2,30.70175439,1634.490566,-7593.272727,747.8878205,-525.535461,-222.9440448,-2262.083669,-3096.56213,-9844.325053,32.88082902,3445.689734,-1515.558266,-7729.809564,59.82,63.93,60.18,67.4,0,0.03139331,0.003048596,-0.065833039
202,-10,0.9,2,31.57894737,1716,-7536,648,-546,-273,-2439,-3046.632396,-9863.635309,-71.88406736,3385.1024,-1432.0531,-7649.66076,59.82,63.97974765,60.18,67.31839755,0,0.049747649,0,-0.081602453
202,-10,0.9,2,32.45614035,1594,-7682,768,-545,-379,-2600,-2976,-9906,-182,3360,-1396,-7552,59.82,64.04914584,60.18553711,67.18741054,0,0.069398189,0.005537109,-0.130987003
202,-10,0.9,2,33.33333333,1798.816817,-8497.938,1001.307167,-494.9070532,-422.1179532,-2742.385523,-2576.97236,-10105.23566,-348.4404145,3380.428571,-1464.69186,-7367.221358,59.82,64.11463662,60.23446289,66.96193849,0,0.065490784,0.048925781,-0.225472053
202,-10,0.9,2,34.21052632,2172,-9200,1162,-434,-440,-2873,-2062,-10336,-462,3404,-1566,-7124,59.82,64.16565126,60.24,66.99041152,0,0.051014638,0.005537109,0.028473032
202,-10,0.9,2,35.0877193,2560,-7620,614,-418,-434,-2991,-1812,-10430,-142,3408,-1621,-6898,59.82,64.19961923,60.24,67.08866255,0,0.033967975,0,0.098251029
202,-10,0.9,2,35.96491228,3148.694065,-7232.696901,57.3218707,-428,-463,-3087.166367,-1468.57113,-10387,440.5466076,3380.382443,-1638.975664,-6547.422783,59.7844043,64.2,60.27117792,67.09,-0.035595703,0.000380766,0.031177915,0.001337449
202,-10,0.9,2,36.84210526,3776,-6942,-254,-438,-492,-3157,-1256,-10344,844,3316,-1646,-6117,59.76,64.20645996,60.30590944,67.09082944,-0.024404297,0.006459961,0.034731523,0.00082944
202,-10,0.9,2,37.71929825,4342.178894,-6456.307119,-102.8915094,-380,-453.5,-3199.597628,-1604.753002,-10348.40449,856.0441447,3168.76376,-1544.234998,-5630.156289,59.76,64.26354004,60.32425823,67.10341184,0,0.057080078,0.018348795,0.0125824
202,-10,0.9,2,38.59649123,4746,-5916,176,-322,-415,-3222,-2262.394892,-10363.0312,860.7929057,2915.436257,-1303.136662,-5096.479674,59.73785874,64.27,60.33978525,67.12521024,-0.022141258,0.006459961,0.015527014,0.0217984
202,-10,0.9,2,39.47368421,4899.935563,-5264.634783,481.4804925,-375.2,-420.3709677,-3227.079861,-2646,-10390,874,2618,-1019,-4593,59.7,64.27,60.35151758,67.14854464,-0.037858742,0,0.011732338,0.0233344
202,-10,0.9,2,40.35087719,5022,-4872,806,-474,-433,-3229,-2678,-10636,1116,2243,-668,-4158,59.7,64.22583147,60.35848235,67.16573504,0,-0.044168532,0.006964768,0.0171904
202,-10,0.9,2,41.22807018,5226.780328,-5717.935866,1057.137081,-579.3324165,-459.9153226,-3171.022472,-2286,-10878,1248,1688,-158,-3146,59.69446289,64.2,60.36,67.16468322,-0.005537109,-0.025831468,0.001517648,-0.001051821
202,-10,0.9,2,42.10526316,5356,-7078,1356,-702,-508,-3069,-2782.740741,-10909.28468,1212.043551,1324.561677,279.4237233,-1831.149051,59.64553711,64.2,60.36,67.10633562,-0.048925781,0,0,-0.058347603
202,-10,0.9,2,42.98245614,4576.866426,-8105.644246,2118.273936,-839.1578887,-607.7200081,-2948.977528,-3705.259259,-10922.47571,1107.198213,1023.818304,658.9896394,-483.51897,59.64,64.22583147,60.36,67.06088371,-0.005537109,0.025831468,0,-0.045451911
202,-10,0.9,2,43.85964912,3612,-9004,2686,-983,-743,-2873,-4202,-10952,938,619,821,135,59.64,64.27,60.36,67.02,0,0.044168532,0,-0.040883705
202,-10,0.9,2,44.73684211,3361.576756,-9752.246921,1901.253497,-1135.892169,-887.6047531,-2900.565868,-2626.740741,-16629.8518,-1511.642657,-318.0869908,586.8238501,-15.37037037,59.64,64.27,60.36,66.96955051,0,0,0,-0.050449486
202,-10,0.9,2,45.61403509,3140,-10286,796,-1259,-1024,-2966,298.7407407,-27122.9259,-5851.599106,-1521.543495,-23.13007758,-294.6296296,59.64,64.276839,60.36,66.92278456,0,0.006838999,0,-0.046765956
202,-10,0.9,2,46.49122807,2760.258665,-10503.11783,150.7465035,-1334.917526,-1127.561495,-3123.176258,1874,-32768,-8168,-2117,-870,-445,59.64,64.32585182,60.36,66.8827358,0,0.049012823,0,-0.040048757
202,-10,0.9,2,47.36842105,2204,-10750,-174,-1371,-1209,-3374,258,-6432,9796,524,-2542,2737,59.64,64.37580501,60.36,66.84267362,0,0.049953185,0,-0.040062176
202,-10,0.9,2,48.24561404,899.6411609,-12633.72488,16.41784428,-1350.052632,-1278.841398,-3746.872382,-5334,4084,11290,1389,1491,1897,59.64,64.41,60.36,66.79,0,0.034194993,0,-0.052673624
202,-10,0.9,2,49.12280702,-824.1794195,-15807.96939,461.5023552,-1299.105263,-1338.03181,-4206.390434,-7278,-12934,5310,149,2016,1222,59.64,64.41,60.40101563,66.61616741,0,0,0.041015625,-0.173832588
202,-10,0.9,2,50,-1684,-17758,972,-1236,-1363,-4553,-3215.407407,-10944.96296,-1441.814445,-718.7990198,1552.14437,1720.885487,59.64,64.41980256,60.42,66.41311792,0,0.009802565,0.018984375,-0.203049489
202,-10,0.9,2,50.87719298,1264,-18078,1560,-1147,-1342,-4724,4329.407407,-7251.037037,-7980.573889,-1416.066177,622.0665182,2753.32653,59.64,64.47422959,60.42,66.23176143,0,0.05442703,0,-0.18135649
202,-10,0.9,2,51.75438596,1224.074074,-17144.08877,1277.79848,-1075.305204,-1358.435043,-4772.70306,8392,-5262,-10914,-1702,-82,3623,59.64,64.48,60.42,66.16164533,0,0.005770405,0,-0.070116104
202,-10,0.9,3,52.63157895,1149.925926,-15099.06642,614.7080705,-1008.771658,-1403.981197,-4801.312858,5605.07433,-7366.937493,-7333.263353,-1059.523179,-425.0790831,4089.648832,59.64,64.48040784,60.41984734,66.11311757,0,0.000407844,-0.000152656,-0.048527762
202,-10,0.9,3,53.50877193,1110,-13078,-154,-923,-1473,-4828,1226,-10234,-1150,-391,-588,4501,59.64,64.51569785,60.40522288,66.01275459,0,0.035290006,-0.014624466,-0.10036298
202,-10,0.9,3,54.38596491,2692,-11472,-1064,-780,-1659,-4858,-1698,-11398,4346,-361,246,4952,59.64553711,64.56462425,60.37960716,65.88689884,0.005537109,0.048926399,-0.025615713,-0.125855742
202,-10,0.9,3,55.26315789,4724,-11278,-2466,-864,-1432,-4932,-5283.969396,-13885.96829,3215.013948,-761.5555556,191.2962963,5187.963172,59.69446289,64.61542411,60.36131895,65.78105067,0.048925781,0.050799857,-0.018288215,-0.10584817
202,-10,0.9,3,56.14035088,7556.455259,-11911,-1033.25876,-719.5,-1389.643384,-4956.429134,-8874.873587,-16961.31748,1060.027895,-1505.444444,89.7037037,5359.648253,59.6755957,64.62,60.36,65.72850831,-0.018867188,0.004575894,-0.00131895,-0.052542369
202,-10,0.9,3,57.01754386,9318,-12544,1072,-575,-1375,-4966,-10508,-18466,-262,-1906,35,5426,59.64,64.62175249,60.36,65.68365078,-0.035595703,0.001752493,0,-0.044857529
202,-10,0.9,3,57.89473684,8634.664052,-11868.05939,2250.307106,-658.0963855,-1598.376944,-4461.425936,-10193.38049,-17865.86589,-526.3784738,-1899.369974,35.60932945,5350.390954,59.64,64.75447181,60.36,65.58898315,0,0.132719316,0,-0.094667625
202,-10,0.9,3,58.77192982,7270,-10310,3242,-803,-1982,-3508,-9375.839739,-16318.1516,-747.110692,-1879.709436,37.18075802,5145.847397,59.64,64.85128638,60.36,65.51706345,0,0.096814574,0,-0.071919703
202,-10,0.9,3,59.64912281,4971.384655,-5673.940606,4364.951654,-968.9036145,-2401.623056,-2180.430304,-8244.854387,-14201.88921,-925.2801419,-1847.3627,39.32944606,4845.794702,59.64,64.88854468,60.36,65.47332235,0,0.037258294,0,-0.043741095
202,-10,0.9,3,60.52631579,3198,-1920,5002,-1073,-2661,-1172,-6989.901087,-11896.11079,-1061.970311,-1802.674076,41.67055394,4483.658242,59.66214126,64.92860977,60.36,65.47,0.022141258,0.04006509,0,-0.003322354
202,-10,0.9,4,61.40350877,3012.428931,-2095.777778,2398,-1051.113167,-2124.705045,-1007.003458,-5800.456489,-9779.848397,-1158.264685,-1745.987876,43.81924198,4092.86339,59.7,64.97,60.36,65.47,0.037858742,0.041390233,0,0
202,-10,0.9,4,62.28070175,2929.209971,-2422.222222,-2438,-983.6707778,-1065.521201,-923.401331,-4865.997244,-8232.134111,-1215.246752,-1677.648414,45.39067055,3706.835518,59.7,65.01354121,60.31898438,65.47,0,0.043541207,-0.041015625,0
202,-10,0.9,4,63.15789474,2722,-2598,-5042,-868,-308,-760,-4376,-7632,-1234,-1598,46,3359,59.7,65.05755462,60.3,65.47,0,0.044013411,-0.018984375,0
202,-10,0.9,4,64.03508772,604,-202,-2868,-291,-73,-79,-4208.45906,-7763.450681,-1134.075665,-1375.816553,46,3024.742603,59.7,65.10153489,60.3,65.47,0,0.043980269,0,0
202,-10,0.9,4,64.9122807,-192.7530163,-852,-266.371049,146.7581404,-10.32151773,1415.750673,-4108,-7930,-972,-1120,46,2689,59.7,65.14559267,60.2915978,65.47,0,0.044057784,-0.008402198,0
202,-10,0.9,4,65.78947368,-516,-1502,1272,464,51,2904,-4052.478049,-7996.674033,-860.1270525,-981.1306987,46.37037037,2345.878229,59.7,65.1896575,60.26735599,65.47,0,0.044064831,-0.024241807,0
202,-10,0.9,4,66.66666667,-281.3873874,-1387.476592,1205.694687,640.5263915,307.2127505,3589.801872,-4018.610114,-8055.138318,-764.2767792,-865.4017878,47.2962963,1978.123172,59.7,65.23365891,60.24494606,65.47,0,0.044001409,-0.022409933,0
202,-10,0.9,4,67.54385965,180,-1156,1030,787,632,4162,-3994.112268,-8103.647956,-671.1940588,-766.7687647,48.5,1616.446324,59.7,65.27653196,60.24,65.4590625,0,0.042873053,-0.004946061,-0.0109375
202,-10,0.9,4,68.42105263,906.4676683,-736.5234082,-112.6008763,935.4787473,851.4764768,4829.988816,-3966.700585,-8140.458048,-567.6237697,-679.1871273,49.7037037,1291.559182,59.7,65.31922845,60.24,65.40300781,0,0.042696484,0,-0.056054687
202,-10,0.9,4,69.29824561,1482,-434,-1250,1129,1039,5540,-3924.091138,-8163.823696,-440.3107906,-596.6123732,50.62962963,1034.173242,59.72735599,65.39524989,60.26735599,65.4,0.027355994,0.076021444,0.027355994,-0.003007813
202,-10,0.9,4,70.1754386,1576,-836,-1376,1555,1197,6330,-3854,-8172,-276,-513,51,875,59.76,65.47555143,60.29932617,65.39921387,0.032644006,0.080301532,0.031970178,-0.000786133
202,-10,0.9,4,71.05263158,1558.582728,-1274.007196,-1170.148148,1843.183069,1182.521256,6936.320633,-3320.773352,-8115.481481,13.7692612,-414.8239925,47.62962963,783.50802,59.76,65.52014172,60.25391602,65.34623535,0,0.044590299,-0.045410156,-0.052978516
202,-10,0.9,4,71.92982456,1512.721011,-1747.513606,-787.8518519,2076.143915,1143.598067,7461.639888,-2422.608898,-8010.518519,424.0531423,-322.7453296,41.37037037,715.2358582,59.76,65.55839491,60.24,65.34320302,0,0.038253183,-0.013916016,-0.003032334
202,-10,0.9,4,72.80701754,1448,-2296,-582,2265,1087,7956,-1948,-7954,828,-282,38,680,59.76,65.59498596,60.24,65.39481481,0,0.036591053,0,0.051611797
202,-10,0.9,4,73.68421053,1261.261098,-3014.965823,-800,2412.431056,940.9178286,8436.216846,-2220,-8250,1180,-308,47,670,59.76,65.68328614,60.24,65.4,0,0.088300179,0,0.005185185
202,-10,0.9,4,74.56140351,1110,-3798,-1018,2539,743,8878,-2102.272553,-8169.445175,1109,-344.5081142,86.21938542,695.2268145,59.75932617,65.76,60.24,65.4,-0.000673828,0.076713861,0,0
202,-10,0.9,4,75.43859649,1709,-4572.427034,-983.3838496,2686.020501,583.9383947,9284.425158,-1868,-8032,1038,-393,121,747,59.71391602,65.76,60.24,65.4,-0.045410156,0,0,0
202,-10,0.9,4,76.31578947,2308,-5208,-896,2782,419,9645,-1509.791687,-7910.65624,1309.960212,-461.9006048,123.5629315,819.713254,59.7,65.74539589,60.24,65.4,-0.013916016,-0.014604112,0,0
202,-10,0.9,4,77.19298246,1928,-5526.791669,-478.6161504,2803.675824,216.3904054,9953.012212,-1178,-7794,1642,-552,126,918,59.7,65.69267861,60.24,65.4,0,-0.052717281,0,0
202,-10,0.9,4,78.07017544,1548,-5868,-114,2812,21,10215,-1063.668106,-7713.206875,1747.039788,-673.4364573,146.6079545,1030.761456,59.67,65.69,60.24,65.4,-0.03,-0.002678608,0,0
202,-10,0.9,4,78.94736842,1906,-6690,-1018,2806,-123,10421,-934,-7608,1792,-806,165,1185,59.64,65.68812738,60.24010042,65.40063475,-0.03,-0.001872616,0.000100421,0.000634745
202,-10,0.9,4,79.8245614,1606,-8216.190494,-1515.699963,2822.5,-101.8093076,10628.18491,-428,-7290,1222,-921,159,1461,59.64,65.64249746,60.24332362,65.42133342,0,-0.045629928,0.003223194,0.020698679
202,-10,0.9,4,80.70175439,1306,-10112,-1742,2839,-39,10754,-539.452381,-7634,983.6424,-1035.741963,148.7744361,1777.303443,59.649375,65.59351777,60.25019112,65.46660387,0.009375,-0.048979684,0.006867509,0.045270443
202,-10,0.9,4,81.57894737,1352,-12006,-1224,2815,349,10768,-676,-7978,884,-1139,142,2097,59.69742188,65.55097569,60.25948818,65.53012359,0.048046875,-0.042542086,0.009297052,0.063519719
202,-10,0.9,4,82.45614035,1039.04955,-13623.73235,-594.3088171,2769.4502,981.0589791,10608.86089,-710,-7024,970,-1217,191,2384,59.7,65.47563644,60.27,65.60557009,0.002578125,-0.07533925,0.010511824,0.075446506
202,-10,0.9,4,83.33333333,652,-14476,-220,2706,1733,10316,-634,-7402.518576,872,-1289.540453,223.1532798,2659.840254,59.70080602,65.38178036,60.28051182,65.68662089,0.000806025,-0.093856078,0.010511824,0.081050804
202,-10,0.9,4,84.21052632,520.9504505,-12498,-1023,2632.027709,2557.61207,10011.57201,-558,-7902,774,-1357,261,2907,59.72462039,65.27365868,60.28980888,65.76695351,0.02381437,-0.108121675,0.009297052,0.080332613
202,-10,0.9,4,85.0877193,464,-10520,-1826,2527,3242,9661,-696,-8080,970,-1417,351,3099,59.76797476,65.16916457,60.29667638,65.84024544,0.043354366,-0.104494116,0.006867509,0.073291933
202,-10,0.9,4,85.96491228,1623.163315,-11173.30161,-1372.225259,2328.109734,3664.362869,9287.909194,-794,-7106,1192,-1447,346,3226,59.81255038,65.11193437,60.29989958,65.90017421,0.044575616,-0.057230197,0.003223194,0.059928765
202,-10,0.9,4,86.84210526,3146,-12332,-656,2054,3866,8863,-1439.535197,-6919.421764,907.5573742,-1490.194813,367.5597302,3364.585212,59.85526969,65.11,60.3,65.94793976,0.042719316,-0.001934369,0.000100421,0.047765549
202,-10,0.9,4,87.71929825,3661.231034,-13727.69839,-141.9558175,1720.102012,3860.614269,8386.537173,-2601.349615,-6812.1809,348.8925262,-1543.247613,416.675016,3496.959272,59.88,65.11078613,60.29991753,65.98226624,0.024730307,0.000786133,-8.25E-05,0.034326487
202,-10,0.9,4,88.59649123,4144,-14618,296,1366,3846,7758,-3586,-6772,-42,-1600,470,3556,59.88,65.16376465,60.29087261,66.0038877,0,0.052978516,-0.009044925,0.021621462
202,-10,0.9,4,89.47368421,5099.49897,-13973.61983,664.714713,1040.937259,3569.114414,6653.619474,-4284.230154,-6763.314153,-185.9187127,-1676.637345,524.6967082,3547.385404,59.88,65.16819301,60.26983609,66.0227318,0,0.004428361,-0.02103652,0.0188441
202,-10,0.9,4,90.35087719,6319.160648,-12631.46187,984.057666,731.2329684,2936.97799,5139.36143,-4650,-6760,-250,-1725,580,3529,59.88,65.11440934,60.24102843,66.03753468,0,-0.053783672,-0.028807653,0.014802871
202,-10,0.9,4,91.22807018,7320,-11478,1192,473,2192,3611,-4386.468962,-7133.851852,-246.4504755,-1720.592593,620.7210583,3489.203726,59.88,65.0657246,60.20867011,66.04703245,0,-0.048684742,-0.032358326,0.009497774
202,-10,0.9,4,92.10526316,7918,-10838,1286,287,1269,2192,-3853.604591,-7828.148148,-233.5676177,-1712.407407,657.7569736,3435.76853,59.88067383,65.04078613,60.176653,66.05,0.000673828,-0.024938463,-0.032017107,0.002967551
202,-10,0.9,4,92.98245614,7674.6994,-10292.57816,1373.836877,10.57829969,78.60692793,405.2104367,-3438,-8202,-208,-1708,710,3409,59.92608398,65.09376465,60.13064881,66.05,0.045410156,0.052978516,-0.046004194,0
202,-10,0.9,4,93.85964912,7032,-9554,1518,-238,-838,-1109,-3264,-7662,922,-1785,816,3469,59.94,65.10026119,60.12,66.05,0.013916016,0.006496542,-0.010648807,0
202,-10,0.9,4,94.73684211,2774.3006,-6729.2,3067.826303,-390.4973369,-1085.041667,-1911.490382,-4202,-7984,747,-1875.673653,969.248544,3544.5553,59.94,65.03815816,60.12,66.05,0,-0.062103027,0,0
202,-10,0.9,4,95.61403509,-1084,-4418,4510,-464,-1377,-2479,-5140,-8306,572,-1929,1174,3590,59.94,64.95434892,60.12,66.05,0,-0.083809242,0,0
202,-10,0.9,4,96.49122807,1964,-7236,4200,-391,-3379,-2888,-4131,-8237,2021,-1795,1563.618022,3572.83871,59.94180517,64.89059859,60.12,66.05204339,0.001805175,-0.063750326,0,0.002043394
202,-10,0.9,4,97.36842105,-5596,-10714,2900,-737,-3561,-1946,-3122,-8168,3470,-1661,1837,3534,59.98267465,64.85132185,60.12,66.09914277,0.040869479,-0.039276749,0,0.047099377
202,-10,0.9,4,98.24561404,-5184.417514,-11365.41577,934.9671715,-627.9213801,-2809.4375,-2335.249015,-4100,-9718.849402,475,-1913,1774.5,3427.16129,60.02497819,64.77203186,60.10444444,66.15249746,0.042303535,-0.079289988,-0.015555556,0.053354684
202,-10,0.9,4,99.12280702,-4108.946705,-11705.05593,-1479.195848,-363.4570136,-1156,-3219.497374,-5078,-12206,-2520,-2165,1712,3342,60.05864036,64.64171406,60.06205761,66.19812738,0.033662171,-0.130317793,-0.042386831,0.045629928
202,-10,0.9,4,100,-2608.502543,-11967.16813,-3526.260943,-37.76414027,497.4375,-4173.497046,-4748.221402,-13905.4623,-2336.566474,-2133,1864.5,3382.343705,60.06,64.54172253,60.06,66.2,0.00135964,-0.099991531,-0.002057613,0.001872616
202,-10,0.9,1,0,-922,-12386,-4390,255,1249,-4772,-3998,-15698,-1864,-2101,2017,3477,60.06,64.46930604,60.06257813,66.20201627,0,-0.07241649,0.002578125,0.002016275
202,-10,0.9,1,0.862068966,2109.814221,-13352.81856,1602,558.7285068,372.9707609,-5029.751313,-1888.778598,-18720.68829,720.566474,-2354.5,1825.629247,3734.625555,60.06,64.42938001,60.110625,66.24886382,0,-0.039926033,0.048046875,0.04684755
202,-10,0.9,1,1.724137931,4422,-14032,7594,740,-664,-5148,-200,-20714,3016,-2608,1564,4033,60.06,64.36696554,60.12,66.30424855,0,-0.062414471,0.009375,0.055384727
202,-10,0.9,1,2.586206897,4551.78097,-9949,5911.322333,128.3753105,-937.9707609,-4740.5,-235.3478763,-19507.55768,2365.259259,-2550.863104,1425.325784,4215.762476,60.06,64.27837584,60.12,66.34945306,0,-0.088589697,0,0.045204513
202,-10,0.9,1,3.448275862,4696,-5866,2568,-711,-1051,-4333,-338.2513082,-17078.44869,1156.740741,-2422.392874,1314.996225,4364.887423,60.06,64.19914093,60.12,66.30647466,0,-0.079234906,0,-0.042978406
202,-10,0.9,1,4.310344828,7342,-18758,-1904,-1062,-115,-4795,-504,-15212,506,-2287,1270,4452,60.06,64.10934129,60.11770405,66.27452955,0,-0.089799648,-0.00229595,-0.031945111
202,-10,0.9,1,5.172413793,5804,-14526.19001,-1826.152888,-792.3837464,167.0247934,-4897.406058,-2772.859803,-14244.66242,519.9471743,-2180.835608,1561.148148,4494.510272,60.06,63.98663441,60.07251781,66.37418157,0,-0.122706872,-0.045186241,0.09965202
202,-10,0.9,1,6.034482759,4266,-9596,-1630,-479,275,-4934,-6781.541013,-13485.33121,564.1165708,-2066.260527,2101.851852,4524.588469,60.0501123,63.88011321,60.07391602,66.45001265,-0.009887695,-0.106521205,0.001398206,0.075831086
202,-10,0.9,1,6.896551724,4835,-8422.809991,-856.5440692,-417.8410011,165.1662951,-4671.814226,-8920,-13178,642,-1897,2393,4536,60.00396973,63.79611205,60.11932617,66.48955545,-0.046142578,-0.084001156,0.045410156,0.039542799
202,-10,0.9,1,7.75862069,5404,-7948,104,-376,-4,-4231,-8694,-14088,1114,-1511,2386,3812,59.95794434,63.74755333,60.0844043,66.49,-0.046025391,-0.048558725,-0.034921875,0.000444547
202,-10,0.9,1,8.620689655,3722,-8308,598,-329,-110,-3869,-7652.281583,-12327.99061,1802.476081,-1242.927242,2721.702128,3068.565578,59.94,63.70740423,60.06,66.49592593,-0.017944336,-0.040149099,-0.024404297,0.005925926
202,-10,0.9,1,9.482758621,3862,-7817,571.2132565,-318.4525173,-84.5,-3642.500047,-5874,-8634,2866,-942,3170,2186,59.94,63.66643974,60.06,66.55491084,0,-0.040964485,0,0.058984911
202,-10,0.9,1,10.34482759,4002,-7326,488,-307,-59,-3410,-3460,-2820,5212,-354,3338,849,59.93257033,63.63549129,60.06,66.57,-0.007429669,-0.030948451,0,0.015089163
202,-10,0.9,2,11.20689655,3914,-7858,-224,-231,-101,-3012,-3197.892715,4711.356417,1603.949382,-230.611753,1280.821126,328.1995805,59.88815928,63.60714499,60.06,66.57,-0.044411053,-0.028346307,0,0
202,-10,0.9,2,12.06896552,3877.319502,-7798.543478,-354.8759124,-128.2447799,-95.42307692,-2649.135777,-2994,9284,-3746,-187,-1208,5,59.83773771,63.58619404,60.02735599,66.63405913,-0.050421571,-0.020950942,-0.032644006,0.064059134
202,-10,0.9,2,12.93103448,3862,-7698,-400,-34,-81,-2337,-2402,5662,-6704,-394,-1785,-222,59.82,63.58,60.00038503,66.7356097,-0.017737708,-0.006194044,-0.026970963,0.101550566
202,-10,0.9,2,13.79310345,4578,-7614,80,20,-35,-2108,-1464.832377,4072.15176,-5181.311706,141.2255562,-2031.940237,-969.0959126,59.82,63.58,60.01205324,66.81141494,0,0,0.01166821,0.075805243
202,-10,0.9,2,14.65517241,4430.338598,-7769.610877,657.6591829,-0.268386513,-39,-1706.241408,-426.4161885,2999.478776,-2095.067857,1195.784446,-2201.192341,-2160.472957,59.82,63.58,60.03443583,66.88077516,0,0,0.022382588,0.06936022
202,-10,0.9,2,15.51724138,4068.010529,-8074.110642,1231.71848,-45.87010636,-49,-1207.954368,64,1798,332,1943,-2264,-3226,59.82,63.58,60.06,66.94,0,0,0.025564171,0.059224837
202,-10,0.9,2,16.37931034,3612,-8284,1492,-94,-62,-821,-36.0778098,-242.1466105,1662.142336,2173.890392,-2039.307451,-3968.446583,59.78502058,63.66161866,60.09984738,66.98033937,-0.034979424,0.081618656,0.039847381,0.040339369
202,-10,0.9,2,17.24137931,2940,-8340,1362,-139,-83,-616,-244,-1612,2314,2362,-1704,-4621,59.76,63.72,60.12,67.03830209,-0.025020576,0.058381344,0.020152619,0.05796272
202,-10,0.9,2,18.10344828,2588.630905,-8075,1404,-189.1930112,-57.51315789,-526.7510989,-635.324928,-1708.460155,1786.356913,2629.722241,-1508.756496,-5249.192263,59.76,63.72,60.12,67.19485883,0,0,0,0.15655674
202,-10,0.9,2,18.96551724,2284,-7810,1446,-248,-31,-489,-1215.84438,-1750.438167,620.1184344,2933.252546,-1346.163796,-5852.407369,59.76,63.7025695,60.12,67.27194899,0,-0.017430503,0,0.077090161
202,-10,0.9,2,19.82758621,1867.333633,-8011.185185,1377.439481,-345.0030936,-29.30994152,-500.0135838,-1742.441643,-1788.697096,-559.6792613,3220.406578,-1187.239197,-6406.91879,59.76,63.62454406,60.12,67.31402281,0,-0.078025433,0,0.042073821
202,-10,0.9,2,20.68965517,1414.806037,-8384.814815,1188.434518,-456.0015468,-28.32163743,-524.1382787,-1972,-1874,-1128,3439,-1003,-6889,59.76,63.54317945,60.09246074,67.39901586,0,-0.08136461,-0.02753926,0.084993054
202,-10,0.9,2,21.55172414,1028,-8586,904,-509,-28,-548,-1911.020648,-2243.524497,-1172.559217,3591.849202,-747.8133534,-7292.056785,59.75505394,63.52,60.04765312,67.4985347,-0.004946061,-0.023179453,-0.04480762,0.099518831
202,-10,0.9,2,22.4137931,754,-7638,158,-391,-93,-567,-1742,-2826,-1190,3695,-521,-7630,59.7084022,63.52,60.00578422,67.59414894,-0.04665174,0,-0.041868899,0.095614248
202,-10,0.9,2,23.27586207,702.9198312,-7750.518519,167.5870819,-338.8725079,-83.14814815,-654.4070381,-1014,-3458,-1100,3744,-406,-7901,59.7,63.52,60,67.6856111,-0.008402198,0,-0.005784222,0.091462151
202,-10,0.9,2,24.13793103,673.4599156,-7959.481481,193.1741638,-303.4318844,-64.85185185,-813.8261109,-370,-4952,-1338,3839,-334,-8199,59.7,63.52,60,67.78777701,0,0,0,0.102165913
202,-10,0.9,2,25,664,-8072,230,-273,-55,-980,-444,-5842,-1512,3911,-420,-8328,59.72729004,63.52,60,67.88691077,0.027290039,0,0,0.099133766
202,-10,0.9,2,25.86206897,1042,-7588,312,-245,-68,-1136,-810,-7058,-1626,3983,-652,-8449,59.77296387,63.523744,60,67.96583959,0.045673828,0.003744001,0,0.07892882
202,-10,0.9,2,26.72413793,946,-7820,512,-285,-69,-1325,-828.7820798,-8153.736284,-1783.956204,3969.387033,-1109.515719,-8448.280151,59.81617676,63.56669276,60,68.00739067,0.043212891,0.042948754,0,0.041551076
202,-10,0.9,2,27.5862069,348,-7986,736,-312,-108,-1496,-848,-9040,-1882,3942,-1617,-8446,59.82,63.61533447,60.01316507,67.99366196,0.003823242,0.048641713,0.013165072,-0.013728708
202,-10,0.9,2,28.44827586,180.8488372,-7909.237996,1067.677032,-352.9297112,-111.0572289,-1730.127802,-1410,-9590,-1666,3904,-1971,-8423,59.82,63.65,60.06,67.92803191,0,0.034665532,0.046834928,-0.065630048
202,-10,0.9,2,29.31034483,118,-7820,1278,-402,-112,-2004,-2118,-10040,-668,3870,-2416,-8392,59.82,63.65,60.10683493,67.83954241,0,0,0.046834928,-0.088489505
202,-10,0.9,2,30.17241379,504,-7804,1150,-455,-106,-2308,-2304.678996,-10241.95941,-703.5088696,3761.693853,-2603.582428,-8368.110309,59.82,63.65302286,60.12,67.75712794,0,0.00302286,0.013165072,-0.082414469
202,-10,0.9,2,31.03448276,984,-7486,822,-460,-127,-2530,-2445.513871,-10382.30329,-790.2066087,3568.186223,-2756.280231,-8350.173995,59.82,63.69545664,60.12,67.67388123,0,0.042433777,0,-0.083246711
202,-10,0.9,2,31.89655172,1934,-7364,440,-484,-147,-2706,-2543.009247,-10492.26746,-898.349913,3337.331667,-2870.186821,-8330.582527,59.82,63.80121541,60.13898438,67.50338789,0,0.105758777,0.018984375,-0.170493337
202,-10,0.9,2,32.75862069,1802,-7449,564.0234114,-541.8233185,-199.1585366,-2843.919871,-2599.669749,-10603.08776,-998.1954783,3116.98474,-2941.395607,-8301.727372,59.82,63.93,60.18,67.32,0,0.128784587,0.041015625,-0.183387893
202,-10,0.9,2,33.62068966,1670,-7534,722,-597,-238,-2977,-2618,-10746,-1060,2955,-2966,-8256,59.86101563,63.93,60.18,67.32,0.041015625,0,0,0
202,-10,0.9,2,34.48275862,1786,-7244,770,-616,-233,-3132,-2254,-10940,-1084,2860,-2936,-8073,59.87242798,63.93757202,60.18512911,67.30106996,0.011412359,0.007572016,0.005129112,-0.018930041
202,-10,0.9,2,35.34482759,2302,-6986,868,-665,-224,-3284,-2033.460626,-11163.75097,-830.1018425,2759.274945,-2849.665701,-7878.723187,59.82757202,63.98242798,60.22387782,67.18893004,-0.044855967,0.044855967,0.038748705,-0.112139918
202,-10,0.9,2,36.20689655,2654.686436,-6855.397059,821.4375,-706.6498942,-236.7962533,-3377.919465,-1865.063646,-11419.06126,-290.4259071,2649.417274,-2693.117497,-7656.386808,59.82,63.99,60.26446104,67.18514197,-0.007572016,0.007572016,0.040583225,-0.003788067
202,-10,0.9,2,37.06896552,2967.221277,-6750.019608,719,-744.6714992,-269.1233422,-3456.531588,-1798,-11738,202,2510,-2485,-7331,59.82,63.99,60.3,67.24,0,0,0.035538959,0.054858026
202,-10,0.9,2,37.93103448,3190.645479,-6679.632353,616.5625,-781.6073547,-311.8887599,-3514.877917,-1828,-12224,522,2289,-2125,-6605,59.82,63.99,60.31900561,67.30412719,0,0,0.019005615,0.064127193
202,-10,0.9,2,38.79310345,3276,-6654,570,-820,-356,-3548,-2568,-12634,46,2110,-1860,-5971,59.81720511,63.98860255,60.33548132,67.38499309,-0.002794891,-0.001397446,0.016475702,0.080865899
202,-10,0.9,2,39.65517241,3129,-6709.848703,768.2272727,-856.2974481,-410.8062914,-3564.714286,-2834,-13162,-118,1650,-1545,-4696,59.77880457,63.96940229,60.34845421,67.46479539,-0.038400534,-0.019200267,0.012972895,0.079802303
202,-10,0.9,2,40.51724138,2982,-6850,1018,-902,-462,-3572,-2462,-12916,-154,1251,-1350,-3463,59.7263795,63.94318975,60.3569514,67.5257318,-0.052425077,-0.026212539,0.008497193,0.060936403
202,-10,0.9,2,41.37931034,3324,-7248,1090,-992,-489,-3517,-2886.944,-13743.424,-317.2608964,636.3691242,-1100.540566,-2208.096865,59.7,63.93,60.36,67.55,-0.026379497,-0.013189749,0.003048596,0.024268202
202,-10,0.9,2,42.24137931,4016.29824,-6993,881.4252669,-987.5,-515.1380082,-3455.688162,-3900.272,-15716.512,-628.5985084,-161.4397353,-814.3347161,-865.8045112,59.7,63.96785874,60.36,67.45535314,0,0.037858742,0,-0.094646855
202,-10,0.9,2,43.10344828,4852,-6738,598,-983,-550,-3374,-5109.728,-18071.488,-982.1056723,-958.7331568,-476.4585833,363.0362745,59.7,63.99,60.36553711,67.4,0,0.022141258,0.005537109,-0.055353145
202,-10,0.9,2,43.96551724,5574,-7260,484,-1000,-627,-3219,-6123.056,-20044.576,-1271.875224,-1571.817719,-71.9883004,1277.584707,59.7,63.99,60.41446289,67.4,0,0,0.048925781,0
202,-10,0.9,2,44.82758621,5440.889109,-7687.931469,347.0694306,-973.676264,-702.8160048,-3155.427515,-6548,-20872,-1392,-1817,414,1677,59.7,64.01091629,60.39785874,67.33386927,0,0.020916291,-0.016604149,-0.066130733
202,-10,0.9,2,45.68965517,5112,-8196,266,-915,-811,-3129,-5289.161064,-20423.68835,270.8125,-1542.625,1341.218586,1728.413522,59.7,64.06,60.36,67.17,0,0.049083709,-0.037858742,-0.163869267
202,-10,0.9,2,46.55172414,3802.430172,-9091.250934,2340,-763.323736,-1139.067231,-3232.196319,-2460.762839,-19194.16893,3929,-939,2689.860966,1752.617598,59.7,64.08947018,60.40101563,67.07322792,0,0.02947018,0.041015625,-0.096772077
202,-10,0.9,2,47.4137931,2544,-10398,4414,-644,-1561,-3396,515.0168066,-17356.56504,7587.1875,-335.375,3905.572862,1779.262874,59.7,64.114967,60.42,66.98541089,0,0.025496817,0.018984375,-0.087817032
202,-10,0.9,2,48.27586207,2361.360343,-12891.76424,3095.946508,-885,-1892.711852,-3511.171394,2216,-15084,9250,-61,4434,1838,59.7,64.1290884,60.42,66.90013225,0,0.014121398,0,-0.085278643
202,-10,0.9,2,49.13793103,2218,-14910,1214,-1126,-2168,-3618,2554.147904,-9227.914685,3654.755831,-387.044843,4039.996499,2483.920671,59.72214126,64.13,60.42,66.78238049,0.022141258,0.000911605,0,-0.117751759
202,-10,0.9,2,50,1998.758798,-15262.92678,56.83583732,-1088.522442,-2399.689751,-3707.767341,2960,-4398,-3180,-937,3228,3283,59.76,64.13,60.42,66.64,0.037858742,0,0,-0.142380488
202,-10,0.9,2,50.86206897,1708.885484,-15451.35356,-910.6931924,-998.378218,-2596.733765,-3793.181916,5968,-4180,-4854,-1393,2018,3569,59.76,64.17785156,60.42,66.49930647,0,0.047851563,0,-0.140693527
202,-10,0.9,3,51.72413793,1268,-15756,-1316,-889,-2680,-3912,5036.04768,-7357,-3192.723204,-1001.5,368.4643788,3989.226188,59.76,64.1890625,60.42,66.37258669,0,0.011210938,0,-0.126719778
202,-10,0.9,3,52.5862069,-319.7962302,-16864.08237,-1212.527037,-743.5070575,-2641.01208,-4134.521248,2998,-10534,-650,-610,-650,4362,59.76,64.13300781,60.42,66.26555573,0,-0.056054688,0,-0.107030963
202,-10,0.9,3,53.44827586,-1636,-17744,-918,-572,-2551,-4448,-397.6629989,-7914,1308.723204,-693.8781804,-436,4502.182267,59.76,64.18838134,60.42,66.16300618,0,0.055373532,0,-0.102549547
202,-10,0.9,3,54.31034483,-64,-16204,530,-411,-2360,-4853,-5672,-5294,2386,-930,-222,4689,59.76,64.27,60.42,66.05,0,0.081618656,0,-0.113006184
202,-10,0.9,3,55.17241379,1993.608854,-13000.70894,859.9322391,-461.0645756,-2409.583889,-4695.5,-14220,-10526,932,-2027,-1029,6230,59.76,64.22214844,60.37898438,65.913542,0,-0.047851563,-0.041015625,-0.136458005
202,-10,0.9,3,56.03448276,4300,-10752,1100,-545,-2509,-4538,-7083,-9002.882878,-602.6175841,-2088.51918,-530.5,5565,59.76,64.20850822,60.36,65.77267746,0,-0.013640215,-0.018984375,-0.14086454
202,-10,0.9,3,56.89655172,7207.711512,-12772,1446.104911,-607.4941958,-2642.905021,-4577,54,-7370,-2022,-2107,-32,4900,59.76,64.28131897,60.36,65.63555931,0,0.072810752,0,-0.137118148
202,-10,0.9,3,57.75862069,9130,-14792,1912,-682,-2810,-4616,-2224,-7240,-3112,-1588,-402,5009,59.76,64.37166041,60.36,65.56711685,0,0.090341431,0,-0.068442453
202,-10,0.9,3,58.62068966,9320,-12806,2772,-808,-2991,-3989,-4564.19606,-7342.843327,-2756.887757,-1250.221531,-194.1681571,4757.59169,59.76067383,64.41,60.35947315,65.54,0.000673828,0.038339594,-0.000526854,-0.027116854
202,-10,0.9,3,59.48275862,7316,-7858,4274,-974,-3396,-2624,-5878,-7500,-1972,-991,77,4276,59.80608398,64.41,60.31984398,65.54,0.045410156,0,-0.039629168,0
202,-10,0.9,3,60.34482759,5058,-2566,4678,-1048,-3732,-1483,-4592,-7596,-524,-792,169,3697,59.80868313,64.42813579,60.28736463,65.53180745,0.002599143,0.018135785,-0.032479344,-0.00819255
202,-10,0.9,3,61.20689655,3936,4568,4576,-894,-3471,-251,-3646,-7680,-164,-712,151,3456,59.76444444,64.52245296,60.26351989,65.48229595,-0.044238683,0.09431717,-0.023844748,-0.0495115
202,-10,0.9,4,62.06896552,-596,4752,-218,-732,-2152,374,-4025.752573,-7848.701659,-171.7777778,-603.6933803,128.6901337,3136.87838,59.76,64.61058336,60.24599276,65.4242357,-0.004444444,0.088130403,-0.017527129,-0.058060248
202,-10,0.9,4,62.93103448,-410,1634,-6128,-435,-655,-544,-4746.838478,-8052.795274,-186.2222222,-484.437692,103.4586655,2770.358872,59.76,64.69891459,60.24,65.4,0,0.088331228,-0.005992757,-0.024235701
202,-10,0.9,4,63.79310345,263.1995231,352.1578849,-4037.227105,296.462355,552.6686575,-72.28506307,-5182,-8152,-194,-396,77,2414,59.76,64.80162172,60.24,65.4,0,0.102707129,0,0
202,-10,0.9,4,64.65517241,802,-332,-894,1044,1414,825,-5234,-7708,440,-351,49,2092,59.76,64.83,60.23756908,65.4,0,0.028378284,-0.002430921,0
202,-10,0.9,4,65.51724138,-342,-596,926,1373,1820,1882,-5087.63269,-7553.790649,677.7755802,-368.9147638,54.42105263,1702.823842,59.76,64.83,60.21676601,65.4,0,0,-0.020803072,0
202,-10,0.9,4,66.37931034,-966.6976337,-1019.011424,1984.26278,1567.338535,2040.589804,2566.075408,-4730.15427,-7453.673102,835.1100123,-409.273972,65.84210526,1290.437158,59.76,64.85097293,60.19095417,65.4,0,0.020972929,-0.025811837,0
202,-10,0.9,4,67.24137931,-1250,-1294,2474,1709,2171,3163,-4284,-7418,892,-452,76,958,59.76,64.90625958,60.18,65.3995368,0,0.055286654,-0.01095417,-0.000463201
202,-10,0.9,4,68.10344828,-40.04786245,-1220.864407,1323.044547,1805.271747,2238.499442,3786.426829,-3554.963671,-7802,884.78125,-502.3042241,83.77631579,705.2930384,59.76,65.00751476,60.18,65.36066477,0,0.101255173,0,-0.038872025
202,-10,0.9,4,68.96551724,1486,-1134,-320,1909,2268,4465,-2862,-8186,864,-534,88,554,59.76,65.04,60.18,65.30951412,0,0.032485243,0,-0.051150651
202,-10,0.9,4,69.82758621,1928,-1116,-1116,2116,2243,5333,-2574.107361,-7929.091049,423.21875,-532.647541,84.61979167,508.1880342,59.76,65.04,60.18,65.2620795,0,0,0,-0.047434625
202,-10,0.9,4,70.68965517,1671.759731,-1293.860591,-1122.235955,2394.730209,2040.561563,5888.874552,-2348,-7632,-4,-529,77,490,59.73264401,65.12785362,60.18,65.29191533,-0.027355994,0.087853618,0,0.029835829
202,-10,0.9,4,71.55172414,1412,-1678,-1124,2620,1709,6380,-2045.099418,-7564.908951,18.10851263,-499.852459,56.38020833,513.6048159,59.7,65.26607174,60.17940159,65.32955212,-0.032644006,0.13821812,-0.000598412,0.037636798
202,-10,0.9,4,72.4137931,1407.772997,-2429.645901,-1015.111111,2729.447701,1370.420657,6966.060625,-1846,-7538,68,-473,40,556,59.7,65.31127398,60.13714635,65.29136019,0,0.045202245,-0.042255241,-0.038191937
202,-10,0.9,4,73.27586207,1406.016386,-3497.808935,-812.8888889,2809.168295,998.8037788,7567.400538,-1815.807124,-7670.222222,168.262107,-479.4386426,48.37179792,591.9627774,59.69756908,65.34052289,60.12,65.23732877,-0.002430921,0.029248907,-0.017146346,-0.054031421
202,-10,0.9,4,74.13793103,1402,-4340,-704,2840,660,8075,-1800.522406,-7915.777778,329.2580255,-496.0995073,65.63248473,632.6495083,59.67676601,65.3603814,60.12,65.18244863,-0.020803072,0.019858507,0,-0.054880137
202,-10,0.9,4,75,1339.319251,-4796.116022,-877.080597,2836.294118,351.3387336,8441.667338,-1774,-8048,508,-519,80,690,59.65095417,65.37822567,60.14735599,65.18,-0.025811837,0.017844271,0.027355994,-0.00244863
202,-10,0.9,4,75.86206897,1280,-5162,-1128,2828,125,8772,-1698.708119,-7904,757.3214377,-564.7861012,86.623394,800.4038097,59.64,65.40306046,60.18,65.180625,-0.01095417,0.024834793,0.032644006,0.000625
202,-10,0.9,4,76.72413793,1291,-5496.429192,-1289.919403,2811.953251,0.049511855,9143.601012,-1562,-7760,920,-625,94,963,59.64,65.44317633,60.18,65.23041667,0,0.040115866,0,0.049791667
202,-10,0.9,4,77.5862069,1302,-5828,-1374,2789,-57,9482,-1149.924933,-7768.205071,818.75,-680.3702935,117.40625,1166.354761,59.64,65.5098835,60.19391602,65.287264,0,0.066707169,0.013916016,0.056847331
202,-10,0.9,4,78.44827586,1077.122725,-6150.370597,-1320,2765.752632,-50.98364486,9747.524642,-456.155496,-7793.213523,596,-737.1890788,155.25,1419.648959,59.64,65.60355525,60.23932617,65.3294873,0,0.093671751,0.045410156,0.042223307
202,-10,0.9,4,79.31034483,772,-6622,-1266,2733,-32,9959,196.691689,-7835.615214,373.25,-792.1633248,190.46875,1709.868678,59.64,65.66334857,60.24,65.33,0,0.059793319,0.000673828,0.000512695
202,-10,0.9,4,80.17241379,650,-8032,-1520,2663,153,10106,486,-7896,272,-842,206,2024,59.63932617,65.68842052,60.24,65.33107495,-0.000673828,0.025071955,0,0.001074954
202,-10,0.9,4,81.03448276,622.0540309,-9413.330916,-1516.460033,2622.841075,470.343139,10139.12366,460,-8126,804,-884,195,2399,59.59391602,65.55697144,60.24,65.41747107,-0.045410156,-0.13144908,0,0.08639612
202,-10,0.9,4,81.89655172,612,-10758,-1506,2589,907,10151,-356.5583011,-7675.609943,766,-961.2174842,206.5747126,2711.149788,59.58874188,65.38357155,60.24,65.50963317,-0.005174133,-0.173399891,0,0.092162099
202,-10,0.9,4,82.75862069,716.9002827,-12357.84833,-896.5399674,2552.900816,1520.30439,10052.15471,-1576,-7180,728,-1049,233,2897,59.63204016,65.2058917,60.24,65.59032452,0.043298277,-0.17767985,0,0.080691343
202,-10,0.9,4,83.62068966,910,-13300,-294,2513,2211,9854,-2520.907429,-7132.735907,788.0094637,-1116.467197,288.5439314,2929.453998,59.67,65.08694108,60.24,65.71910847,0.037959841,-0.118950619,0,0.128783954
202,-10,0.9,4,84.48275862,1075.857389,-12732.74074,-379.5555556,2471.303136,2931.097045,9593.792946,-3040,-7080,932,-1186,369,2957,59.70722709,65.04,60.24,65.85251434,0.037227091,-0.046941082,0,0.133405868
202,-10,0.9,4,85.34482759,1273.004421,-11679.25926,-538.4444444,2421.448447,3637.281468,9250.442893,-2472,-6510,1280,-1276,461,3026,59.74246512,65.04,60.24,65.95988845,0.035238028,0,0,0.107374113
202,-10,0.9,4,86.20689655,1580,-11112,-624,2341,4046,8884,-2623.577922,-6308.419598,662.1917808,-1418.765199,461.5014425,3248.721658,59.78131081,65.04,60.23125812,65.98,0.038845688,0,-0.008741882,0.020111548
202,-10,0.9,4,87.06896552,2637.007069,-12454,-516.3267293,2040.062576,4188.366957,8535.091688,-2844,-6228,-360,-1543,462,3496,59.8184368,65.04,60.18795984,65.98,0.037125992,0,-0.043298277,0
202,-10,0.9,4,87.93103448,3770,-13796,-280,1652,4248,8094,-2958,-7190,-1160,-1592,514,3612,59.82,65.075,60.1467143,65.905,0.0015632,0.035,-0.041245541,-0.075
202,-10,0.9,4,88.79310345,4156.661137,-13183.77207,296.35863,1400.54277,4076.809158,7407.13205,-2968,-7868,-348,-1514,532,3577,59.82,65.10464278,60.11604318,65.83037376,0,0.029642784,-0.030671117,-0.07462624
202,-10,0.9,4,89.65517241,4411.270356,-11981.76636,1097.179315,1182.735057,3655.396094,6451.601444,-3384.104003,-7540.296296,-367.7037037,-1553.407407,581.3655329,3506.28329,59.82,64.99920822,60.09746572,65.84161216,0,-0.105434561,-0.018577464,0.0112384
202,-10,0.9,4,90.51724138,4796,-11142,1502,971,3122,5258,-4218.238136,-6931.703704,-404.2962963,-1626.592593,664.2251556,3414.998923,59.82,64.98460411,60.08161275,65.86283456,0,-0.014604112,-0.015852972,0.0212224
202,-10,0.9,4,91.37931034,5837.020008,-10834.67309,1293,765.5520509,2314.605717,3367.339957,-4900,-6604,-424,-1666,762,3349,59.82,65.03732139,60.06945716,65.88636096,0,0.052717281,-0.012155586,0.0235264
202,-10,0.9,4,92.24137931,6942,-10698,1084,550,1336,1367,-5320.860399,-7856.889956,-259.4841438,-1657.676471,913.1919736,3324.339184,59.85,65.04,60.06197186,65.90451136,0.03,0.002678608,-0.007485305,0.0181504
202,-10,0.9,4,93.10344828,7452,-11168,1218,284,456,71,-5534,-9562,124,-1634,1028,3296,59.88,65.04,60.06,65.91,0.03,0,-0.001971857,0.00548864
202,-10,0.9,4,93.96551724,259,-22172.3844,-2027,-767.8692149,-1085.907538,-417.7181769,-4340,-10252,964,-1518,1044,3190,59.88,65.04,60.06,65.91,0,0,0,0
202,-10,0.9,4,94.82758621,-6934,-32768,-5272,-1624,-2116,-886,-4386,-9356,782,-1812,1580,3204,59.88211762,65.02610106,60.06,65.91,0.002117616,-0.013898943,0,0
202,-10,0.9,4,95.68965517,-2538,-16785,2184,-705,-1410.5,-2334.444167,-3053.407407,-9945.710278,413.77384,-1945.174869,1503,3402.674098,59.89667931,64.93892353,60.06,65.91,0.014561697,-0.087177527,0,0
202,-10,0.9,4,96.55172414,1858,-802,9640,214,-705,-3435,-578.5925926,-11271.865,-70.62528117,-2037.154226,1360,3754.623228,59.91972245,64.82593763,60.06,65.91,0.023043132,-0.1129859,0,0
202,-10,0.9,4,97.4137931,-6502,-10220,5442,-788,-3409,-1634,754,-12670,-452,-2093,1283,3963,59.94616504,64.75016262,60.06,65.91151173,0.026442593,-0.075775008,0,0.001511735
202,-10,0.9,4,98.27586207,-9192.687274,-6352,-4373.416237,-782.9174236,-2210.129651,-3108.842504,-591.037037,-13978.77703,-711.3170651,-2119.963922,1319.296296,3986.638391,59.99006158,64.71305616,60.06,65.95139341,0.043896544,-0.037106464,0,0.039881678
202,-10,0.9,4,99.13793103,-10240,-2484,-11484,-768,-438,-4859,-3088.962963,-15375.12934,-923.8807548,-2137.283649,1386.703704,3998.738028,60,64.65523187,60.06,66.02575338,0.009938417,-0.05782429,0,0.074359965
202,-10,0.9,4,100,-5718.953116,-7692,-8357.398171,-191.4081496,782.1296507,-5268.13103,-4434,-16702,-1012,-2168,1423,4024,60,64.56023087,60.06,66.11875706,0,-0.095000996,0,0.093003678
202,-10,0.9,1,0,574,-12900,-2728,423,1429,-5523,-2652.31248,-18172.94438,946,-2331.273734,1396.214713,4269.476439,60,64.4382937,59.99471199,66.08191533,0,-0.121937172,-0.065288011,-0.03684173
202,-10,0.9,1,0.877192982,3352,-9376,2926,480,140,-5722,-152,-19024,2904,-2472,1320,4557,60.00257813,64.31951224,59.94257813,66.05204339,0.002578125,-0.118781461,-0.052133864,-0.029871932
202,-10,0.9,1,1.754385965,7962,-14044,9056,610,-702,-5597,986,-17538,2446,-2468,946,4644,60.050625,64.22641275,59.990625,66.09914277,0.048046875,-0.093099493,0.048046875,0.047099377
202,-10,0.9,1,2.631578947,8930,-8578,6708,85,-1562,-5150,-154.3133923,-14247.69268,1571.596088,-2314.737233,922.9653087,4749.105912,60.04444444,64.1759165,60,66.1466191,-0.006180556,-0.050496249,0.009375,0.047476327
202,-10,0.9,1,3.50877193,9339.978412,-12828,3368.82278,-698.1856436,-615.0759222,-5346.41917,-2760,-11660,598,-2165,916,4912,60.00205761,64.14144171,60,66.19116044,-0.042386831,-0.034474793,0,0.044541343
202,-10,0.9,1,4.385964912,9512,-17078,40,-1196,339,-5714,-8106,-11360,-108,-2258,1739,5354,60,63.99609796,60,66.24381754,-0.002057613,-0.145343744,0,0.052657095
202,-10,0.9,1,5.263157895,2022,-7032,-2280,-809,347,-6127,-8762,-14566,1528,-2159,2182,5234,60,63.84729305,60,66.27,0,-0.148804913,0,0.026182464
202,-10,0.9,1,6.140350877,3173.23938,-7553,-1888.839867,-699.1654397,156.5319549,-5796.659964,-8948,-14438,2354,-1800,2403,4411,60,63.80540287,60,66.27,0,-0.041890177,0,0
202,-10,0.9,1,7.01754386,4698,-8074,-1162,-619,-81,-5292,-7416,-12176,3538,-1758,2887,3885,59.99709944,63.76167059,60,66.28665084,-0.002900555,-0.043732284,0,0.016650837
202,-10,0.9,1,7.894736842,5250,-7476,-362,-506,-146,-4984,-4248,-10206,4806,-1357,3414,2592,59.98126887,63.70743162,60,66.34518695,-0.015830576,-0.054238963,0,0.058536115
202,-10,0.9,1,8.771929825,4480,-7737,1006.416198,-509.1210618,-107,-4642.348926,-3910.31793,-5967.001985,3573.5,-895.0225089,3068.17741,1695.14887,59.95554219,63.65293993,59.9644043,66.3899375,-0.025726676,-0.054491693,-0.035595703,0.044750545
202,-10,0.9,2,9.649122807,3710,-7998,1914,-519,-68,-4268,-3741.09731,55.49823545,862,-394.2794531,2268.723094,951.5964648,59.92436091,63.60803362,59.94,66.43220793,-0.031181279,-0.04490631,-0.024404297,0.042270437
202,-10,0.9,2,10.52631579,4338,-6918,822,-618,-123,-3840,-3623.328035,5442.749338,-1849.5,107.8533293,1372.657231,281.9958276,59.89216653,63.58255081,59.94,66.47146596,-0.032194385,-0.025482813,0,0.039258021
202,-10,0.9,2,11.40350877,4572.957809,-6971.653846,306.8,-538.1715154,-113.46875,-3427.611187,-3440,7776,-3082,574,737,-393,59.85544449,63.58,59.94,66.52578549,-0.036722035,-0.002550809,0,0.054319537
202,-10,0.9,2,12.28070175,4710.300001,-7109.076923,-101.0666667,-356.2073744,-92.5,-3022.436858,-3114.055807,7378.719788,-2951.71875,1006.501935,377.6687219,-1097.613679,59.82043513,63.58,59.94,66.60103282,-0.035009368,0,0,0.075247328
202,-10,0.9,2,13.15789474,4840.992193,-7294.961538,-369.4,-158.3895461,-71.53125,-2634.2941,-2678.000369,6317.00356,-2608.25,1431.062345,66.61382833,-1799.586859,59.82,63.58,59.94,66.67734411,-0.000435125,0,0,0.076311294
202,-10,0.9,2,14.03508772,5056,-7494,-466,-31,-62,-2273,-2179.167051,4786.037925,-2122.65625,1845.348144,-205.0948333,-2493.544978,59.82,63.57505394,59.94494606,66.73326925,0,-0.004946061,0.004946061,0.055925136
202,-10,0.9,2,14.9122807,5536,-7746,628,15,-83,-1954,-1664.889217,2981.009494,-1566,2247.026248,-446.3874154,-3174.113474,59.82,63.5284022,59.9915978,66.76905539,0,-0.04665174,0.04665174,0.035786144
202,-10,0.9,2,15.78947368,4582,-7894,1394,-86,-120,-1571,-1182.500231,1097.104875,-1009.34375,2633.763571,-666.1940706,-3835.917785,59.82,63.58781198,60,66.87158844,0,0.059409781,0.008402198,0.102533045
202,-10,0.9,2,16.66666667,4032.31872,-7981.024747,1280.5625,-104.8291187,-128.9712079,-1325.400799,-779.3334564,-670.4893196,-523.75,3003.227028,-873.4449514,-4473.583351,59.82,63.78126491,60,67.01805563,0,0.193452932,0,0.146467196
202,-10,0.9,2,17.54385965,3594.607386,-8054.410886,1031,-114.3833216,-135.1966292,-1122.462173,-502.7222581,-2126.586481,-180.28125,3353.083532,-1077.07021,-5081.73561,59.82,63.84327876,60.0355957,67.02,0,0.062013845,0.035595703,0.001944365
202,-10,0.9,2,18.42105263,3254.092359,-8105.091582,781.4375,-121.9958638,-138.823736,-959.0424606,-400,-3076,-50,3681,-1286,-5655,59.82,63.85279714,60.05921862,67.02477045,0,0.009518386,0.023622921,0.004770453
202,-10,0.9,2,19.29824561,2996,-8124,668,-135,-140,-832,-792,-3556,-876,3966,-1483,-6162,59.82,63.76287859,60.04711457,67.09523783,0,-0.089918553,-0.012104055,0.07046738
202,-10,0.9,2,20.1754386,2792.234842,-7949,731.7720157,-169.0360879,-108.5,-721.5247362,-684,-3992,-1192,4373,-1783,-6597,59.80101563,63.64215492,60.02526015,67.2106189,-0.018984375,-0.120723667,-0.021854415,0.115381068
202,-10,0.9,2,21.05263158,2668,-7774,818,-194,-77,-666,-1054,-3811,-1118,4574.431683,-1949.873444,-6892.86607,59.76,63.52,60,67.32,-0.041015625,-0.122154923,-0.025260154,0.109381098
202,-10,0.9,2,21.92982456,2626,-8282,852,-191,-127,-671,-1424,-3630,-1044,4663,-2026,-7171,59.76,63.46527457,59.95792825,67.40774503,0,-0.05472543,-0.04207175,0.087745033
202,-10,0.9,2,22.80701754,2290,-7540,676,-192,-132,-694,-1340,-4060,-1082,4660,-1896,-7520,59.76,63.45577041,59.94,67.49912626,0,-0.009504165,-0.01792825,0.091381229
202,-10,0.9,2,23.68421053,2262,-7698,738,-214,-122,-746,-806,-4760,-1214,4637,-1896,-7909,59.76,63.51019744,59.94,67.60022864,0,0.05442703,0,0.101102375
202,-10,0.9,2,24.56140351,2103.623034,-7695.1875,855.5155925,-246.9642627,-130.230659,-837.7831918,-936.5040215,-5954.78534,-1269.737705,4572.212447,-1929.766221,-8109.202402,59.76,63.49785156,59.95898438,67.65972279,0,-0.012345873,0.018984375,0.059494155
202,-10,0.9,2,25.43859649,1794.762598,-7689,1014.347193,-288.1863098,-151.9484241,-967.141254,-1251.177391,-7548.21168,-1312.655738,4466.070044,-2016.62659,-8271.485468,59.76,63.45,60,67.7,0,-0.047851563,0.041015625,0.040277208
202,-10,0.9,2,26.31578947,1454.020863,-7682.8125,1154.005198,-330.815202,-182.6919771,-1122.428689,-1634.762065,-9205.032179,-1340.245902,4352.142619,-2134.923664,-8380.275801,59.79785874,63.45,60,67.7581636,0.037858742,0,0,0.058163599
202,-10,0.9,2,27.19298246,1200,-7680,1214,-368,-218,-1292,-1972,-10590,-1350,4264,-2263,-8420,59.82,63.45472606,60,67.7754597,0.022141258,0.004726059,0,0.0172961
202,-10,0.9,2,28.07017544,1058.915269,-7770.237145,1023.703704,-404.079602,-279.9680063,-1501.426999,-2238,-11582,-250,4211,-2430,-8415,59.82,63.50602646,60,67.71970036,0,0.051300406,0,-0.055759337
202,-10,0.9,2,28.94736842,945.692562,-7993.807623,670.2962963,-437.3731343,-362.3116892,-1747.633055,-2459.227092,-11823.22534,-53.02081449,4011.967786,-2582.329589,-8380.881016,59.82,63.5437711,60.02016461,67.64802504,0,0.037744631,0.020164609,-0.071675319
202,-10,0.9,2,29.8245614,812,-8280,480,-452,-418,-1976,-2650.830001,-11964.16014,59.9340372,3698.448326,-2726.160244,-8300.889692,59.82,63.57628007,60.05946502,67.55889057,0,0.032508976,0.039300412,-0.089134468
202,-10,0.9,2,30.70175439,584.1734497,-8852.483212,949,-401,-434.9754707,-2155.84338,-2756,-12048,96,3459,-2861,-8184,59.82,63.61837385,60.06,67.46380836,0,0.042093783,0.000534979,-0.095082216
202,-10,0.9,2,31.57894737,408,-9278,1418,-350,-453,-2341,-2784,-12098,-720,3353,-2983,-7912,59.82,63.66512451,60.06086826,67.3744767,0,0.046750657,0.000868259,-0.089331657
202,-10,0.9,2,32.45614035,360.8170213,-9142,1356.566038,-426.5,-528.2927766,-2591.714581,-3490,-11684,-1120,3248,-3237,-7547,59.82,63.71553955,60.07397308,67.28220306,0,0.050415039,0.013104817,-0.092273639
202,-10,0.9,2,33.33333333,342,-9006,1270,-503,-615,-2846,-3576,-10974,-860,3154,-3417,-7352,59.84214126,63.72,60.09644211,67.2033819,0.022141258,0.004460449,0.022469031,-0.078821165
202,-10,0.9,2,34.21052632,486,-9528,1230,-491,-655,-3044,-3038,-9986,-376,2978,-3645,-7042,59.88,63.72,60.12,67.17,0.037858742,0,0.023557893,-0.033381898
202,-10,0.9,2,35.0877193,1564,-8582,1252,-518,-625,-3223,-3539.925926,-9870.287548,-172.8894765,2787.884759,-3503.666675,-6876.653053,59.88,63.80261517,60.1424525,67.17928709,0,0.082615174,0.022452503,0.009287086
202,-10,0.9,2,35.96491228,3309.555893,-7209.050592,826,-544.828044,-653.3705752,-3264.174065,-4472.074074,-9807.143774,-35.78423263,2590.627693,-3182.555572,-6753.855125,59.87874558,63.88236478,60.16697204,67.20297437,-0.001254415,0.079749602,0.024519535,0.023687286
202,-10,0.9,2,36.84210526,4448,-6344,400,-570,-708,-3279,-4974,-9788,42,2397,-2836,-6577,59.8663646,63.93502418,60.19333326,67.2348009,-0.012380981,0.052659401,0.026361226,0.03182653
202,-10,0.9,2,37.71929825,4280.686567,-6570.368286,494.9375,-596.8085106,-782.7764681,-3278.5,-4938.888889,-9841.62963,89.41098364,2225.457003,-2519.201194,-6254.791921,59.84501622,63.97447156,60.22131084,67.26850572,-0.021348385,0.039447381,0.027977575,0.033704817
202,-10,0.9,2,38.59649123,4068,-7012,624,-612,-851,-3278,-4851.111111,-9975.703704,130.3127257,2074.781443,-2182.821648,-5769.759654,59.82,63.99,60.25067942,67.29782787,-0.025016219,0.015528442,0.029368583,0.029322147
202,-10,0.9,2,39.47368421,4004,-7572,676,-594,-880,-3361,-4737,-10150,163.7638623,1926.23564,-1824.386559,-5136.033764,59.77545699,63.99,60.28121367,67.31650639,-0.044543008,0,0.03053425,0.018678521
202,-10,0.9,2,40.35087719,3950,-7198,528,-624,-835,-3428,-4622.888889,-10324.2963,188.8230295,1761.081917,-1441.421123,-4367.744815,59.76,63.99803582,60.31578571,67.30879707,-0.015456992,0.008035823,0.034572038,-0.007709317
202,-10,0.9,2,41.22807018,4190.074074,-6911.480591,127.6986817,-700.4392106,-796.8999708,-3414.795533,-4535.111111,-10458.37037,204.5488634,1560.582597,-1031.450538,-3479.023372,59.76,64.0674944,60.35643016,67.24659475,0,0.069458579,0.040644446,-0.06220232
202,-10,0.9,2,42.10526316,4635.925926,-6673.406962,-405.4839925,-801.9818694,-764.005541,-3386.479955,-4500,-10512,210,1306,-592,-2484,59.76,64.15618767,60.36,67.24,0,0.088693263,0.003569845,-0.006594749
202,-10,0.9,2,42.98245614,4876,-6574,-672,-858,-750,-3360,-5270,-9776,50,857,-67,-936,59.76,64.2,60.36,67.24,0,0.043812335,0,0
202,-10,0.9,2,43.85964912,4580.0399,-7504.843252,-356.5280785,-863.5071062,-773.7553191,-3337.021692,-4831.942566,-11484.125,-481.5123003,336.2019646,359.7129651,-52.0392317,59.71898438,64.2,60.36,67.20545447,-0.041015625,0,0,-0.034545528
202,-10,0.9,2,44.73684211,3956,-9078,282,-869,-827,-3324,-3811.346843,-15242,-1353.399822,-233.5426982,762.605969,607.435612,59.7,64.2,60.36,67.14399729,-0.018984375,0,0,-0.061457178
202,-10,0.9,2,45.61403509,2874.829298,-10480.31477,1444.528078,-911.9211957,-927.7533765,-3446.38899,-2648.577699,-18999.875,-2168.087433,-692.5160118,1062.445988,1203.19265,59.7,64.2,60.36,67.0570921,0,0,0,-0.086905198
202,-10,0.9,2,46.49122807,1668,-11716,2284,-950,-1079,-3691,-1784,-20708,-2528,-881,1180,1896,59.7,64.22446295,60.36,66.95585475,0,0.024462946,0,-0.101237344
202,-10,0.9,2,47.36842105,885.1787469,-12387.0953,1411,-895.0553892,-1318.326684,-4049.236465,-1196.826578,-8276,5873,485,-275.5,2976.23047,59.7,64.27231779,60.36,66.86143979,0,0.047854847,0,-0.09441496
202,-10,0.9,2,48.24561404,164,-13204,538,-823,-1517,-4423,-894,4156,14274,1851,-1731,3659,59.7,64.29424693,60.36,66.78094993,0,0.021929137,0,-0.080489866
202,-10,0.9,2,49.12280702,-648,-15886,660,-798,-1569,-4653,-3060,-556,11530,883,2261,2029,59.7,64.313111,60.36148315,66.68986194,0,0.018864068,0.001483154,-0.091087986
202,-10,0.9,2,50,-700.1737858,-15516.00489,411.0730954,-854,-1435.74547,-4861.139535,2635.82345,-2189.027078,5793.264302,271.4282085,3159.09654,1296.027094,59.7,64.32777495,60.38166138,66.57365475,0,0.014663955,0.020178223,-0.116207187
202,-10,0.9,2,50.87719298,-716,-14806,-132,-910,-1278,-4973,11020,-2898,-2512,-456,3481,983,59.7,64.33710375,60.4084314,66.44988754,0,0.009328799,0.02677002,-0.123767216
202,-10,0.9,2,51.75438596,774,-13948,-1094,-909,-1246,-4887,15542,-2994,-13836,-2320,166,3595,59.7,64.34,60.42,66.34026122,0,0.002896247,0.011568604,-0.109626321
202,-10,0.9,3,52.63157895,3654,-12544,-1926,-966,-1151,-4936,9107.184211,-7422.991754,-8726.185359,-1390.070457,-714.0385117,4488.393147,59.7,64.34,60.42,66.25218093,0,0,0,-0.088080281
202,-10,0.9,3,53.50877193,3638,-12712,-1578,-759,-1162,-5092,616,-12012,-612,-322,-1041,5137,59.7,64.3509375,60.42,66.16283905,0,0.0109375,0,-0.089341881
202,-10,0.9,3,54.38596491,6779,-13016.50693,106.6908072,-871.9754601,-1167.418041,-5072.599525,-2410,-12298,4988,-147,-445,5920,59.7,64.40699219,60.42,66.06821151,0,0.056054687,0,-0.094627539
202,-10,0.9,3,55.26315789,9920,-13222,2356,-1013,-1175,-5019,-3083.436403,-10145.11111,4314.979862,-773.3703704,-170.4915936,6339.304806,59.7,64.41,60.42,65.97537975,0,0.003007813,0,-0.092831762
202,-10,0.9,3,56.14035088,8746.024905,-12442.52935,4179.972857,-1055.257417,-1387.46561,-4649.601329,-3434.635151,-6146.888889,2755.737502,-1936.62963,21.64309208,6646.652403,59.7,64.41,60.42,65.88138328,0,0,0,-0.093996475
202,-10,0.9,3,57.01754386,6472,-10896,5282,-1085,-1811,-3934,-3956,-3994,1000,-2563,94,6766,59.65898438,64.31429688,60.42,65.79873169,-0.041015625,-0.095703125,0,-0.082651592
202,-10,0.9,3,57.89473684,3648,-8836,5422,-1113,-2427,-2812,-5159.140829,-5400.597546,-1421.019011,-2256.656112,-36.5,6515.266234,59.64,64.27578253,60.410625,65.74172565,-0.018984375,-0.038514346,-0.009375,-0.057006037
202,-10,0.9,3,58.77192982,1525.906205,-6042.617815,5549.296665,-1103.5,-2973.475007,-1354.616256,-6676,-6932,-3030,-1828,-167,6034,59.64,64.32646745,60.36257813,65.70238997,0,0.050684926,-0.048046875,-0.039335682
202,-10,0.9,3,59.64912281,456,-2194,5690,-1076,-3533,-4,-8106,-7082,-2732,-1635,-21,5452,59.66735599,64.48307271,60.36,65.54225741,0.027355994,0.156605255,-0.002578125,-0.160132559
202,-10,0.9,4,60.52631579,1094,4412,5890,-928,-4203,831,-6676.561706,-7008,-1233.628918,-1311.358773,109.304428,4903.290477,59.7,64.62,60.36,65.40069815,0.032644006,0.136927291,0,-0.141559259
202,-10,0.9,4,61.40350877,1067.388618,3479.884226,2807.407407,-719.0469142,-3202.536143,710.962963,-4688,-6934,508,-1098,179,4391,59.7,64.62,60.36,65.44999593,0,0,0,0.049297781
202,-10,0.9,4,62.28070175,996.7772358,1599.768451,-2917.407407,-459.8424777,-1295.850063,488.037037,-3812,-7890,1226,-1229,100,3937,59.7,64.63765967,60.350625,65.4590625,0,0.017659672,-0.009375,0.009066571
202,-10,0.9,4,63.15789474,896,146,-6000,-164,-125,368,-3983.779474,-7675.333333,729.8481013,-1173.359825,116.3333333,3470.078865,59.7,64.74537808,60.30257813,65.40300781,0,0.107718408,-0.048046875,-0.056054687
202,-10,0.9,4,64.03508772,550.610061,-621.3319459,-4633.4375,227.6091693,75.55373034,901.0068348,-4304.892282,-7276.666667,-258.3037975,-1043.497429,146.6666667,3010.039354,59.7,64.79331557,60.3,65.4,0,0.047937495,-0.002578125,-0.003007813
202,-10,0.9,4,64.9122807,-64.62439024,-1292.239507,-1627,706.0007229,199.2306395,2151.684893,-4484,-7062,-988,-895,163,2629,59.7,64.83618278,60.29932617,65.4,0,0.042867207,-0.000673828,0
202,-10,0.9,4,65.78947368,-652.0466463,-1767.527315,1379.4375,1155.391915,295.7922289,3597.520505,-4489.431214,-7563,-1315.579114,-724.2142094,121.5,2360.257798,59.7,64.9302842,60.25391602,65.4,0,0.09410142,-0.045410156,0
202,-10,0.9,4,66.66666667,-914,-1948,2746,1460,415,4716,-4496,-8064,-1468,-538,80,2116,59.68748219,64.99433221,60.24,65.4,-0.01251781,0.064048012,-0.013916016,0
202,-10,0.9,4,67.54385965,334,-1858.247396,1271.596107,1600.916313,567.7043248,5399.506444,-4924,-7812,-308,-374,81,1837,59.64229595,65.0320767,60.24,65.4,-0.045186241,0.037744491,0,0
202,-10,0.9,4,68.42105263,1582,-1722,-534,1733,732,5990,-4538.147273,-7765.8865,871.8701299,-392.5454545,114.4393491,1536.755339,59.64,65.06969837,60.24,65.4,-0.00229595,0.037621665,0,0
202,-10,0.9,4,69.29824561,1336.398601,-1619.752604,-1114.596107,1967.880531,924.4775148,6578.049382,-3930,-7750,1532,-425,147,1275,59.64,65.1162195,60.23932617,65.39946252,0,0.046521136,-0.000673828,-0.000537477
202,-10,0.9,4,70.1754386,1030,-1564,-1364,2228,1100,7105,-3520,-7896,992,-455,122,1109,59.64,65.21064557,60.19391602,65.35626446,0,0.094426064,-0.045410156,-0.04319806
202,-10,0.9,4,71.05263158,946,-1752,-1252,2440,1213,7526,-3494,-7234,206,-382,168,913,59.64,65.30515383,60.19251781,65.30482329,0,0.094508264,-0.001398206,-0.051441172
202,-10,0.9,4,71.92982456,820,-2850,-1552,2736,1275,8129,-3404,-7678,156,-359,157,906,59.64,65.38759413,60.23770405,65.26179756,0,0.082440296,0.045186241,-0.043025733
202,-10,0.9,4,72.80701754,1001.827168,-3739.976891,-1436.718476,2956.093631,1251.148148,8597.897147,-3206,-7518,646,-303,141,802,59.64,65.43814854,60.21,65.26,0,0.05055441,-0.02770405,-0.001797558
202,-10,0.9,4,73.68421053,1360.09878,-4546.967393,-1132.992507,3136.935705,1206.851852,9000.924543,-3314,-7278,668,-386,184,810,59.64,65.47891496,60.18,65.26,0,0.040766424,-0.03,0
202,-10,0.9,4,74.56140351,1614,-5430,-704,3212,1183,9320,-2808,-7974,866,-435,225,760,59.64,65.52734839,60.18,65.26,0,0.048433426,0,0
202,-10,0.9,4,75.43859649,1690,-6506,192,3157,1227,9541,-2178,-7340,1044,-455,263,794,59.64,65.5290625,60.18,65.2709375,0,0.001714112,0,0.0109375
202,-10,0.9,4,76.31578947,1972,-7104,342,3067,1262,9785,-1968,-7850,788,-490,267,936,59.64,65.47300781,60.18,65.32699219,0,-0.056054688,0,0.056054687
202,-10,0.9,4,77.19298246,1636,-7524.368894,-240,2974.691461,1133.134289,10204.42904,-1460,-7576,1576,-470,270,1033,59.64,65.47,60.20272505,65.33,0,-0.003007813,0.022725046,0.003007813
202,-10,0.9,4,78.07017544,1300,-8048,-822,2900,909,10550,-1574,-7268,1964,-548,358,1174,59.64,65.46464278,60.24795984,65.33182373,0,-0.005357216,0.045234795,0.001823733
202,-10,0.9,4,78.94736842,1951,-9781.174272,-711,2861.568162,654.3657106,10673.77046,-1715.043243,-7133.281942,1933.450159,-613.1401894,407.7875111,1339.019824,59.64,65.35920822,60.29125812,65.37513739,0,-0.105434561,0.043298277,0.043313658
202,-10,0.9,4,79.8245614,2602,-11496,-600,2825,495,10726,-1882.226765,-7009.082547,1848.406008,-673.4790272,450.2564881,1523.293796,59.64,65.33,60.3,65.41916344,0,-0.029208223,0.008741882,0.044026053
202,-10,0.9,4,80.70175439,2276.375,-12145.35174,-669.375,2768.032267,638.0927198,10640.05867,-2069.038314,-6895.446847,1718.775603,-729.8615587,486.5803858,1722.451001,59.64,65.33,60.3,65.45962752,0,0,0,0.040464075
202,-10,0.9,4,81.57894737,1560,-12658.20155,-822,2696.448226,1000.247253,10416.40645,-2268.96564,-6792.419873,1554.467,-783.1328293,517.9326586,1932.120526,59.64,65.29808467,60.3,65.52324164,0,-0.031915327,0,0.06361412
202,-10,0.9,4,82.45614035,843.625,-12994.95058,-974.625,2615.140071,1480.778159,10106.30101,-2475.49649,-6700.046656,1365.388257,-834.1378842,545.4867611,2147.931459,59.64,65.26,60.3,65.62346721,0,-0.038084673,0,0.100225574
202,-10,0.9,4,83.33333333,518,-13116,-1044,2529,1979,9761,-2682.118613,-6618.372229,1161.447428,-883.7217688,570.416148,2365.512886,59.64,65.26,60.3,65.85276201,0,0,0,0.229294797
202,-10,0.9,4,84.21052632,911.6614285,-12816.81481,-1025.617454,2439.024154,2633.516835,9262.772427,-2882.319758,-6547.441623,952.5525717,-932.7295284,593.8942737,2580.493894,59.64338113,65.24404,60.31391602,65.91,0.003381125,-0.01596,0.013916016,0.05723799
202,-10,0.9,4,85.0877193,1731.100635,-12261.18519,-970.7904641,2338.109617,3393.918896,8614.642349,-3069.587673,-6487.29987,748.6117433,-982.0062084,617.0945928,2788.503569,59.66726788,65.13688,60.35932617,65.91,0.023886752,-0.10716,0.045410156,0
202,-10,0.9,4,85.96491228,2434,-11962,-880,2219,3876,8049,-3237.410107,-6437.992001,559.5329995,-1032.396854,641.1905599,2985.170999,59.70696007,64.975,60.33526969,65.94808467,0.039692197,-0.16188,-0.024056479,0.038084673
202,-10,0.9,4,86.84210526,2822,-12710,-512,2058,4022,7662,-3379.274808,-6399.563048,395.2243969,-1084.746511,667.3556297,3166.125271,59.75402505,64.81312,60.29220843,65.98,0.047064973,-0.16188,-0.043061266,0.031915327
202,-10,0.9,4,87.71929825,3358,-12302,492,1847,3976,6908,-3488.669525,-6372.058042,265.5939918,-1139.900224,696.7632565,3326.99547,59.80003013,64.70596,60.24885406,65.98,0.046005081,-0.10716,-0.043354366,0
202,-10,0.9,4,88.59649123,4126,-11538,1018,1672,3698,6155,-3559.082006,-6355.522016,180.5498407,-1198.703038,730.5868951,3463.410684,59.84262799,64.73870605,60.24,65.99623535,0.042597859,0.032746055,-0.008854061,0.016235352
202,-10,0.9,4,89.47368421,4620.603247,-10802.62772,893.316156,1373.148993,3253.83691,4980.350725,-3584,-6350,150,-1262,770,3571,59.87954217,64.8976416,60.24,66.04921387,0.036914184,0.158935547,0,0.052978516
202,-10,0.9,4,90.35087719,5040,-10178,612,1003,2680,3412,-3444,-6588,277.037037,-1340.599551,817.2911864,3656.266897,59.88,64.9,60.215512,66.05,0.000457829,0.002358398,-0.024488002,0.000786133
202,-10,0.9,4,91.22807018,5466,-9762,58,610,1961,1227,-3184,-7030,512.962963,-1425.759736,872.849713,3726.387531,59.88,64.8982105,60.17185199,66.05300781,0,-0.001789501,-0.04366001,0.003007813
202,-10,0.9,4,92.10526316,6221.472834,-9182.791686,375,289.5517693,1275.995565,-265.3620545,-3044,-7268,640,-1489,935,3778,59.88,64.8534687,60.12664689,66.1090625,0,-0.044741797,-0.045205096,0.056054687
202,-10,0.9,4,92.98245614,6728,-8508,692,32,642,-1359,-3956,-7046,141.7810219,-1525.420101,1003.227605,3818.809438,59.88,64.78627781,60.12,66.12,0,-0.067190895,-0.006646892,0.0109375
202,-10,0.9,4,93.85964912,6472,-7778,592,-144,99,-2054,-4868,-6824,-624,-1551,1089,3839,59.88,64.70250203,60.12,66.12,0,-0.083775779,0,0
202,-10,0.9,4,94.73684211,4868.657409,-6169.794829,1543.481481,-83.85185185,-664.3738239,-2301.480773,-4838.908877,-7458.534483,-1221.781022,-1565.21208,1232.744305,3746,59.88,64.65261115,60.09,66.16,0,-0.049890873,-0.03,0.04
202,-10,0.9,4,95.61403509,1822.040781,-4161.564081,3310.518519,27.85185185,-1531.968154,-2463.129275,-4752,-8800,-1552,-1583,1374,3653,59.88178243,64.61122128,60.06,66.2,0.001782427,-0.041389871,-0.03,0.04
202,-10,0.9,4,96.49122807,-1252,-3176,4262,88,-2233,-2521,-4188,-10958,-1372,-1656,1449,3739,59.92244068,64.56720463,60.06,66.2,0.04065825,-0.044016656,0,0
202,-10,0.9,4,97.36842105,-3898,-6986,988,-1261,-2662,-1655,-1696,-14086,-324,-1902,1564,4003,59.96628409,64.5249774,60.04285365,66.22000407,0.043843415,-0.042227227,-0.017146346,0.020004071
202,-10,0.9,4,98.24561404,-6485.646431,-6876,-6656.276919,-1189.624078,-1308.167817,-3358.5,74.32925285,-19477.36127,2066.071319,-2066.862549,1559.101266,4565.524228,59.99960297,64.48411067,60.00059841,66.26930185,0.033318879,-0.040866733,-0.042255241,0.049297781
202,-10,0.9,4,99.12280702,-7914,-6766,-12192,-990,538,-5062,950,-23258,4030,-2178,1546,5084,60,64.4475575,60,66.27,0.00039703,-0.036553167,-0.000598412,0.000698148
202,-10,0.9,4,100,2746,-12760,-2130,-92,1291,-4956,26,-23502,4346,-2233,1498,5262,60,64.39446994,60.00029172,66.27019104,0,-0.053087565,0.000291715,0.000191043
202,-10,0.9,1,0,5749.082387,-10675,2424.889042,433.9991843,523.5,-5580.994797,-272,-19344,2690,-2335,1262,5470,60,64.26287798,60.00903297,66.27643509,0,-0.131591958,0.008741256,0.006244044
202,-10,0.9,1,0.884955752,7600,-8590,4374,678,-244,-6399,-974.8173789,-14529.83654,920.3503828,-2158.703704,1296.914066,5435.518519,60.01391602,64.15241304,60.0254241,66.2901419,0.013916016,-0.110464937,0.01639113,0.013706812
202,-10,0.9,1,1.769911504,9711.657823,-13019,3404.651964,-252,-174.5,-6704.422609,-2259.694552,-9819.918272,-825.0710417,-1831.296296,1386.717021,5371.481481,60.05932617,64.06837867,60.0433452,66.30946791,0.045410156,-0.084034371,0.017921104,0.019326015
202,-10,0.9,1,2.654867257,10850,-17448,1570,-1182,-105,-6926,-4210,-7698,-2088,-1655,1509,5337,60.06,63.98338022,60.05667638,66.33256957,0.000673828,-0.084998451,0.01333118,0.023101653
202,-10,0.9,1,3.539823009,1462,-4262,-560,-1154,-523,-7118,-9268,-10826,-2744,-1672,1736,5856,60.05972883,63.90918688,60.06,66.35873519,-0.000271171,-0.074193339,0.003323615,0.026165622
202,-10,0.9,1,4.424778761,2718.37037,-5026.069444,-1106.924477,-919.5147648,-421.7158985,-6744.339199,-9248.811276,-11165.0482,-1639.370921,-1561.488731,2020.102418,5568.497844,60.05515666,63.83575468,60.06,66.40217143,-0.004572173,-0.073432195,0,0.043436245
202,-10,0.9,1,5.309734513,5051.62963,-6512.805556,-1439.684461,-519.6514679,-228.8762415,-5966.233953,-9180.289219,-11348.74632,836.3692693,-1336.088572,2359.569389,4851.217909,60.04561777,63.76351038,60.06,66.4613006,-0.009538886,-0.072244302,0,0.059129166
202,-10,0.9,1,6.194690265,6308,-7514,-1552,-275,-111,-5298,-9046,-11404,3426,-1155,2782,3922,60.03199493,63.70214078,60.06,66.52785805,-0.013622842,-0.061369605,0,0.066557449
202,-10,0.9,1,7.079646018,5377,-7826.921875,450,-224.4544359,-90.27794751,-4928.473121,-5432,-8476,5794,-1072,3417,2436,60.01517089,63.66133267,60.06,66.59357914,-0.016824042,-0.040808105,0,0.065721092
202,-10,0.9,1,7.96460177,4446,-7962,2452,-204,-82,-4584,-3374,-5566,7114,-1075,3785,1401,59.9944049,63.65,60.06,66.65047449,-0.020765981,-0.011332672,0,0.056895353
202,-10,0.9,1,8.849557522,4775,-7804.222056,2316.13217,-341.9520185,-117.5,-4152.778379,-2187.540821,2892.045566,6033.600131,-361,3178.177859,28.09918584,59.9478973,63.65,60.06,66.70094669,-0.046507604,0,0,0.050472197
202,-10,0.9,2,9.734513274,5104,-7472,1924,-562,-153,-3716,-1640,9354,3600,353,2058,-812,59.94,63.67214844,60.04101563,66.74691095,-0.0078973,0.022148438,-0.018984375,0.045964261
202,-10,0.9,2,10.61946903,4654,-6944,-152,-716,-143,-3335,-2053,7209.650401,-2964.600131,29,600.5729384,-626,59.94,63.72,60,66.79,0,0.047851563,-0.041015625,0.043089048
202,-10,0.9,2,11.50442478,4778.760417,-7281.221269,-822.6911792,-595.2117117,-117.2726648,-2923.739536,-2466,4466,-8176,-295,-474,-440,59.90502058,63.72,60,66.83336868,-0.034979424,0,0,0.043368683
202,-10,0.9,2,12.38938053,5008,-7744,-1084,-406,-96,-2510,-1763.267987,3652.735966,-6488.137414,619.5777502,-684.750797,-1091.836755,59.88,63.71699219,60,66.87665789,-0.025020576,-0.003007812,0,0.043289203
202,-10,0.9,2,13.27433628,5315.239583,-7989.778731,-726.5510907,-249.2882883,-93.5466629,-2128.554861,-518,2878,-3262,1766,-765,-2361,59.88,63.6609375,60,66.92137536,0,-0.056054688,0,0.044717473
202,-10,0.9,2,14.15929204,5518,-8110,4,-161,-91,-1736,676,1204,592,2088,-390,-3961,59.88,63.67214844,60.01386917,66.97002483,0,0.011210937,0.013869173,0.048649468
202,-10,0.9,2,15.04424779,5224,-7682,1066,-168,-75,-1282,65.7037037,-80.80051973,463.7513852,2303.00519,-439.1266188,-4739.850344,59.88,63.72,60.06,67.02,0,0.047851563,0.046130827,0.049975172
202,-10,0.9,2,15.92920354,4444.453049,-7851,1055.011022,-274.4883135,-86,-991.6159947,-1067.703704,-1169.405602,138.169437,2481.620219,-559.8087932,-5289.119612,59.84214126,63.68611038,60.10402609,67.05791868,-0.037858742,-0.033889618,0.044026091,0.037918677
202,-10,0.9,2,16.81415929,3764,-8020,1022,-375,-97,-798,-1678,-1922,-296,2708,-712,-5772,59.82,63.63513548,60.12,67.11104713,-0.022141258,-0.050974904,0.015973909,0.053128452
202,-10,0.9,2,17.69911504,3636,-7650,800,-271,-93,-700,-1272,-2414.38961,-1295.720308,3098.237729,-993.7503337,-6241.70611,59.82,63.58452045,60.12,67.21070057,0,-0.050615031,0,0.099653441
202,-10,0.9,2,18.5840708,3368.29515,-7814,585.1527265,-213.7292074,-93.49056604,-593.1896552,-866,-2678,-2066,3507,-1215,-6653,59.82,63.59666743,60.12,67.2992811,0,0.012146984,0,0.088580526
202,-10,0.9,2,19.46902655,2982,-7978,438,-185,-95,-532,-1287,-2719.880842,-1520.765939,3805.694048,-1241.398887,-6991.818988,59.82,63.64569878,60.12,67.38920851,0,0.049031346,0,0.089927415
202,-10,0.9,2,20.3539823,2460,-7900,394,-181,-107,-534,-1708,-2768,-872,4028,-1251,-7344,59.8555957,63.6986298,60.0844043,67.52362323,0.035595703,0.052931025,-0.035595703,0.134414721
202,-10,0.9,2,21.23893805,2266,-7676,500,-232,-115,-484,-1486,-3394,-736,4153,-983,-7836,59.88,63.70938883,60.06,67.67675261,0.024404297,0.010759031,-0.024404297,0.153129381
202,-10,0.9,2,22.12389381,1847.622993,-7769,655.6721593,-209.5,-112,-533.7970361,-1320.927056,-4225.149411,-970,4227.544304,-871.2314997,-8204.503299,59.88,63.60292453,60.06,67.83259466,0,-0.106464307,0,0.155842043
202,-10,0.9,2,23.00884956,1498,-7862,834,-187,-109,-629,-1238,-5096,-1204,4301,-801,-8504,59.88,63.55206739,60.06,67.8939775,0,-0.050857134,0,0.061382848
202,-10,0.9,2,23.89380531,1405.2049,-7855.967742,1053.963663,-205.7004405,-132.5,-732.6961754,-1387.964578,-5885.925058,-1127.347826,4450.053148,-746.2229272,-8749.95654,59.88,63.52,60.06,67.93,0,-0.032067391,0,0.036022496
202,-10,0.9,2,24.77876106,1368,-7840,1188,-247,-156,-872,-1614,-6566,-958,4555,-710,-8953,59.88,63.46938703,60.06,67.98792523,0,-0.050612973,0,0.057925232
202,-10,0.9,2,25.66371681,1682,-7784,766,-323,-138,-1093,-1746,-7048,-646,4558,-693,-9112,59.88989212,63.47044023,60.06,68.00538147,0.009892123,0.0010532,0,0.017456233
202,-10,0.9,2,26.54867257,1754,-7572,834,-393,-150,-1239,-1932,-8170,-530,4458,-754,-9267,59.9831956,63.67244149,60.06,67.95180548,0.093303481,0.202001262,0,-0.05357599
202,-10,0.9,2,27.43362832,1404,-7370,1156,-433,-181,-1499,-2152.239637,-9163.381986,-304.2119194,4411.387404,-797.520175,-9294.886112,59.99446289,63.74027206,60.06,67.90578772,0.011267287,0.067830574,0,-0.046017751
202,-10,0.9,2,28.31858407,782.6939925,-7539,1271.663024,-566.6980198,-211.7909684,-1781.36353,-2369.675374,-10084.1538,-19.58463567,4379.039445,-836.8057822,-9310.887501,59.97,63.75987364,60.06,67.86,-0.024462891,0.019601579,0,-0.045787725
202,-10,0.9,2,29.20353982,366,-7708,1318,-672,-236,-2065,-2468,-10924,176,4328,-901,-9316,59.94553711,63.77566769,60.06,67.76664096,-0.024462891,0.015794047,0,-0.093359038
202,-10,0.9,2,30.08849558,638.3650969,-7650.444444,1054.074074,-665.2592593,-246.5041008,-2347.745212,-1852.908669,-11837.15289,269.4423403,4180.814351,-1086.365898,-9295.369683,59.94,63.80284857,60.06103981,67.65684665,-0.005537109,0.027180878,0.001039807,-0.10979431
202,-10,0.9,2,30.97345133,1228.063527,-7543.555556,563.9259259,-652.7407407,-253.5572212,-2622.96425,-892,-12352,312,3999,-1420,-9238,59.94,63.84462433,60.07188276,67.54198569,0,0.041775765,0.010842953,-0.114860962
202,-10,0.9,2,31.85840708,1794,-7486,300,-646,-269,-2848,-262,-11986,-158,3873,-2038,-8987,59.91785874,63.92093833,60.09240848,67.42601326,-0.022141258,0.076313997,0.020525719,-0.115972433
202,-10,0.9,2,32.74336283,2212,-7712,438,-662,-398,-3002,-278,-11462,-574,3745,-2467,-8813,59.88,63.99,60.12,67.32,-0.037858742,0.069061673,0.027591521,-0.106013257
202,-10,0.9,2,33.62831858,2168,-8282,824,-602,-440,-3126,-1186,-11164,-884,3407,-2948,-8554,59.91785874,63.92141682,60.20084673,67.20884855,0.037858742,-0.068583182,0.080846733,-0.111151455
202,-10,0.9,2,34.51327434,2386.120253,-7941.145093,931.5783699,-565.28,-482.8901149,-3236.149119,-1416.902286,-11842,-844.2826087,3151.036013,-3304.861213,-8310.82717,59.93617676,63.84454698,60.24,67.18086213,0.018318016,-0.076869839,0.039153267,-0.02798641
202,-10,0.9,2,35.39823009,2740,-7520,972,-548,-532,-3332,-1610,-12520,-758,2893,-3484,-8000,59.89296387,63.80258776,60.24,67.29324113,-0.043212891,-0.041959215,0,0.112378991
202,-10,0.9,2,36.28318584,3060.304735,-7373.445761,691.6206878,-622.6236676,-615.2791034,-3413.028028,-2084.526046,-12443.61557,-570.9245785,2546.359782,-3424.471518,-7360.903496,59.84729004,63.75183838,60.25831731,67.35942856,-0.045673828,-0.050749386,0.018317313,0.066187431
202,-10,0.9,2,37.16814159,3370.707923,-7269.500658,151.6858199,-769.6917796,-711.1395517,-3484.655487,-2835.848534,-12238.74577,-238.3158829,2128.969063,-3258.578531,-6332.537974,59.82,63.72095606,60.30368676,67.40453612,-0.027290039,-0.030882316,0.04536945,0.045107566
202,-10,0.9,2,38.05309735,3510,-7230,-196,-874,-757,-3545,-3736.470102,-11941.81585,176.2910382,1672.777616,-3005.359723,-5042.255573,59.82,63.79838967,60.34571363,67.45377067,0,0.077433612,0.042026868,0.049234546
202,-10,0.9,2,38.9380531,3508.205543,-7359.907269,-285.9821162,-915.5674797,-725.1111111,-3597.042009,-4658.893393,-11589.25107,609.3611358,1209.735214,-2683.85378,-3617.408435,59.82,63.87489066,60.36,67.46593356,0,0.076500989,0.014286369,0.012162891
202,-10,0.9,2,39.82300885,3501.966642,-7700.036759,-347.3243915,-946.1170732,-665.8888889,-3642.144742,-5475.621046,-11217.47666,997.3593611,771.7916284,-2313.099389,-2185.348699,59.82,63.91482152,60.36,67.41683188,0,0.03993086,0,-0.049101676
202,-10,0.9,2,40.7079646,3490,-8176,-370,-958,-634,-3676,-6059.155702,-10862.91789,1276.750665,390.896633,-1912.135233,-873.4285076,59.82,63.98602655,60.36695384,67.36010255,0,0.071205026,0.006953836,-0.056729328
202,-10,0.9,2,41.59292035,3298,-9140,840,-913,-705,-3697,-6282,-10562,1384,99,-1500,191,59.81940159,64.06555559,60.39136322,67.29338201,-0.000598412,0.07952904,0.024409383,-0.066720542
202,-10,0.9,2,42.47787611,4238,-9188,948,-896,-780,-3708,-5981.700204,-10245.51107,867.1121324,-83.94258964,-800.6563641,1175.617342,59.77714635,64.11750978,60.41477085,67.21804024,-0.042255241,0.051954195,0.02340763,-0.075341768
202,-10,0.9,2,43.36283186,4718,-9706,688,-883,-1029,-3681,-5366,-10060,190,-271,-307,1740,59.76,64.13,60.42,67.13281595,-0.017146346,0.012490216,0.005229151,-0.0852243
202,-10,0.9,2,44.24778761,3169.869335,-11601.58707,1496,-920.5,-1235.387563,-3802.521267,-4490.218559,-14137,-109.1121324,-694.7442922,-1030,1770.58423,59.76,64.13,60.42,67.03396477,0,0,0,-0.09885118
202,-10,0.9,2,45.13274336,1176,-13122,2304,-958,-1343,-4060,-3340,-18214,-248,-996,-1753,1800,59.76,64.13,60.42,66.9836404,0,0,0,-0.050324365
202,-10,0.9,2,46.01769912,538,-12418,718,-916,-1220,-4477,-2157.815634,-11465.76065,4511,138,228.5,2089.5301,59.76,64.13,60.42,66.94,0,0,0,-0.0436404
202,-10,0.9,2,46.90265487,1496,-12819.83509,-52.91342989,-854.6063625,-1315.625,-4561.620433,-516,-4642,9270,1272,2210,2527,59.71898438,64.17785156,60.42,66.85089395,-0.041015625,0.047851563,0,-0.089106047
202,-10,0.9,2,47.78761062,2454,-13886,-390,-799,-1492,-4621,4093.675964,-4519.388479,3315.851852,367.1851852,1961.038704,2841.464545,59.7,64.2,60.42,66.75361047,-0.018984375,0.022148438,0,-0.097283485
202,-10,0.9,2,48.67256637,-342,-17662,1482,-771,-1682,-4715,10455.61576,-4449.916462,-7741.851852,-1313.185185,1380.29963,3147.281134,59.7,64.2,60.42,66.66101721,0,0,0,-0.092593263
202,-10,0.9,2,49.55752212,-1004,-19126,1406,-873,-1569,-4944,13666,-4428,-13696,-2218,717,3542,59.7,64.23191533,60.45191533,66.53626713,0,0.031915327,0.031915327,-0.124750079
202,-10,0.9,3,50.44247788,74.766571,-16338.96296,216.6932497,-933.2782566,-1332.492801,-4893.444444,8011.640614,-8168.832434,-8948.142787,-1359.770865,-232.8768753,4182.850951,59.7,64.27,60.49,66.40969777,0,0.038084673,0.038084673,-0.126569359
202,-10,0.9,3,51.32743363,2430.422031,-11163.03704,-1860.431153,-978.9169061,-1028.084689,-4799.555556,-2,-12690,-1782,-261,-872,4982,59.7,64.27,60.49,66.32065381,0,0,0,-0.089043959
202,-10,0.9,3,52.21238938,4742,-8376,-2966,-997,-825,-4749,-3784,-13732,2422,81,-480,5835,59.7,64.27,60.49,66.23596552,0,0,0,-0.084688291
202,-10,0.9,3,53.09734513,6999.304274,-10272,-2221.975667,-853,-738.4962833,-4898,-5926,-6754,5686,-1174,903,6124,59.7,64.27,60.49,66.15003148,0,0,0,-0.085934038
202,-10,0.9,3,53.98230088,8332,-12168,-790,-709,-700,-5047,-5339.555556,-6606.585197,4077.305719,-1414.150004,540.8148148,6488.088865,59.7,64.28842285,60.46152832,66.04001294,0,0.018422852,-0.02847168,-0.110018535
202,-10,0.9,3,54.86725664,7975.96906,-11855.19904,1147.351484,-959.3989551,-703.7830189,-4495.167409,-4250.444444,-6532.403709,1000.611438,-1553.186113,-131.8148148,6856.655544,59.7,64.34669922,60.42,65.89139769,0,0.058276367,-0.04152832,-0.14861525
202,-10,0.9,3,55.75221239,7138,-11168,2952,-1382,-716,-3606,-3664,-6512,-920,-1598,-494,7025,59.7,64.45379557,60.42,65.61875155,0,0.107096354,0,-0.272646146
202,-10,0.9,3,56.63716814,5242,-9924,3790,-1733,-865,-2964,-5479,-6699.738631,-1313.968934,-1547.806388,-290.8803318,6476.170573,59.7,64.46539589,60.41961851,65.51798503,0,0.011600316,-0.000381492,-0.100766516
202,-10,0.9,3,57.52212389,2983.446511,-8010.547349,4279.183437,-1662.022862,-1083.746587,-2081.32344,-7294,-7108,-1474,-1429,8,5544,59.7,64.41267861,60.41663529,65.48032285,0,-0.052717281,-0.002983216,-0.037662182
202,-10,0.9,3,58.40707965,1650,-4752,4778,-1564,-1352,-1010,-5362,-7824,-432,-1155,169,4755,59.7,64.43097293,60.41084448,65.45065696,0,0.018294321,-0.005790808,-0.029665894
202,-10,0.9,3,59.2920354,1744,4460,5678,-1522,-1668,293,-4988,-7480,920,-1042,47,4526,59.7,64.48605616,60.40242934,65.42839449,0,0.055083231,-0.00841514,-0.022262466
202,-10,0.9,4,60.17699115,2280.092643,4040.873995,3074.323907,-1620,-997.4567173,279,-5012.888889,-7481.005587,877.7975778,-1110.962963,65.80431177,4038.523691,59.7,64.5782844,60.39157313,65.41294259,0,0.092228239,-0.010856212,-0.015451898
202,-10,0.9,4,61.0619469,3366,2842,-1042,-1718,45,265,-5059.111111,-7484.67784,745.8173778,-1239.037037,103.9419569,3378.704352,59.7,64.63268405,60.37845911,65.4037084,0,0.054399651,-0.013114023,-0.009234191
202,-10,0.9,4,61.94690265,5596,-3206,-3844,-843,718,292,-5084,-7492,516,-1308,134,2838,59.7,64.6523334,60.36327053,65.40009906,0,0.01964935,-0.015188574,-0.003609344
202,-10,0.9,4,62.83185841,4427.212914,-2739.333333,-2164.267748,-147.4396178,503.5916657,1159.357119,-4656,-7916,-754,-1224,147,2525,59.7,64.66835919,60.32669213,65.4,0,0.016025791,-0.036578405,-9.91E-05
202,-10,0.9,4,63.71681416,2162.870272,-1872.666667,992.3533934,452.9885948,40.07222033,2873.858213,-4353.42083,-7777.171429,-1432.45756,-1002.099082,99.5,2236.605569,59.7,64.69886659,60.3,65.4,0,0.030507398,-0.026692129,0
202,-10,0.9,4,64.60176991,666,-1406,2802,891,-403,4241,-4204,-7572,-1738,-735,52,1962,59.7,64.77652195,60.3,65.4,0,0.077655364,0,0
202,-10,0.9,4,65.48672566,338,-1526,2920,1148,-727,4861,-4297,-7430.828571,-911,-519.926074,52.92688679,1687.441151,59.690625,64.86386331,60.290625,65.39234375,-0.009375,0.087341355,-0.009375,-0.00765625
202,-10,0.9,4,66.37168142,960,-1487.179825,2239.874931,1383.566273,-1011.02297,5503.448418,-4390,-7356,-84,-370,55,1441,59.64257813,64.95238949,60.24257813,65.33970703,-0.048046875,0.08852618,-0.048046875,-0.052636719
202,-10,0.9,4,67.25663717,1582,-1420,1106,1624,-1162,6137,-4162.23301,-7437.5625,-91.8125,-306.8269331,58.93604975,1224.52306,59.67,65.03992752,60.27,65.28625,0.027421875,0.087538033,0.027421875,-0.053457031
202,-10,0.9,4,68.14159292,1503.090674,-1344.820175,37.65955163,1882.808436,-1109.17499,6741.553471,-3654.621359,-7617,-109,-264.90828,65.45367983,1019.585934,59.69770405,65.12821054,60.3,65.26179756,0.02770405,0.088283023,0.03,-0.024452442
202,-10,0.9,4,69.02654867,1318,-1298,-710,2187,-993,7306,-3130.699029,-7796.4375,-126.1875,-229.5354869,73.49447,849.855842,59.65251781,65.22330223,60.3,65.30482329,-0.045186241,0.095091688,0,0.043025733
202,-10,0.9,4,69.91150442,904,-1914,-880,2618,-782,7799,-2854,-7878,-134,-186,82,739,59.64,65.28402988,60.3,65.35626446,-0.01251781,0.060727643,0,0.051441172
202,-10,0.9,4,70.79646018,620,-2636,-802,2907,-690,8172,-2812,-7794,284,-128,92,686,59.64,65.32466045,60.3,65.39946252,0,0.040630577,0,0.04319806
202,-10,0.9,4,71.68141593,-78,-3736,-752,3309,-602,8841,-2624,-7700,530,-160,82,708,59.64,65.4125312,60.28961327,65.38788215,0,0.087870749,-0.010386729,-0.011580373
202,-10,0.9,4,72.56637168,-38.44123711,-4478.271815,-690.1120976,3578.970312,-443.232913,9240.47894,-2524,-7986,660,-226,155,663,59.64,65.47,60.26473031,65.35885203,0,0.057468799,-0.024882964,-0.029030124
202,-10,0.9,4,73.45132743,28,-5130,-614,3710,-233,9537,-2030.903432,-7771,673.2691083,-264.5423612,186.6362794,705.8581267,59.64,65.47,60.24351109,65.33409628,0,0,-0.021219214,-0.02475575
202,-10,0.9,4,74.33628319,68.29630445,-5751.200505,-484.7759107,3702.907458,60.91032283,9773.424227,-1564,-7556,686,-303,200,790,59.64,65.47,60.24742967,65.3349411,0,0,0.003918576,0.000844829
202,-10,0.9,4,75.22123894,109.1937544,-6370.158753,-334.2768443,3682.259361,392.2093084,9972.804976,-1481.52514,-7661,968.2170413,-365.9401921,175,894.0271622,59.64,65.47,60.29184072,65.3689184,0,0,0.044411053,0.033977293
202,-10,0.9,4,76.10619469,192,-7202,-262,3649,588,10176,-1450,-7766,1288,-445,150,1026,59.64,65.43191533,60.34226229,65.42268571,0,-0.038084673,0.050421571,0.053767309
202,-10,0.9,4,76.99115044,850,-8710,-900,3532,634,10399,-1600,-7646.334003,1357.585279,-538.8913269,179.262931,1177.911674,59.64229595,65.4,60.36,65.4822954,0.00229595,-0.031915327,0.017737708,0.05960969
202,-10,0.9,4,77.87610619,1411.099099,-10460.59204,-561.601071,3435.5565,648.4468534,10452.81747,-1750,-7500,1408,-640,223,1361,59.68748219,65.4,60.36,65.56173403,0.045186241,0,0,0.079438636
202,-10,0.9,4,78.76106195,1896.882883,-12298.0918,150.1311914,3344.26563,656.519723,10485.18651,-1715.625,-7462.053855,1482.714286,-744.0640718,253.6584052,1607.209047,59.69628517,65.39757934,60.36,65.6671299,0.008802976,-0.00242066,0,0.105395864
202,-10,0.9,4,79.6460177,2104,-13870,780,3223,676,10496,-1640,-7441.979625,1566.857143,-852.7366602,283.4741379,1905.828644,59.67407964,65.38082947,60.36,65.80290361,-0.022205526,-0.016749875,0,0.135773714
202,-10,0.9,4,80.53097345,1764,-15004,1158,3008,921,10229,-1564.375,-7420.415582,1635.571429,-950.5409185,306.0528017,2199.283918,59.64886885,65.35401352,60.36,65.96667483,-0.025210786,-0.026815943,0,0.163771222
202,-10,0.9,4,81.4159292,1811.120432,-14449.625,729.25,2834.517993,1377.513422,9853.613058,-1530,-7378,1664,-1022,315,2430,59.64257813,65.32368182,60.36,66.04699219,-0.006290729,-0.030331702,0,0.080317356
202,-10,0.9,4,82.30088496,1935.154486,-13230,-214,2681.929398,1990.812256,9397.491964,-1558,-7218,1438,-1063,292,2578,59.690625,65.28153654,60.36,65.9909375,0.048046875,-0.042145277,0,-0.056054687
