locomotion_mode,terrain_info,walk_speed_info,gait_phase,gait_percentage,left_accel_x,left_accel_y,left_accel_z,left_gyro_x,left_gyro_y,left_gyro_z,right_accel_x,right_accel_y,right_accel_z,right_gyro_x,right_gyro_y,right_gyro_z,left_hip_angle,left_knee_angle,right_hip_angle,right_knee_angle,left_hip_angle_vel,left_knee_angle_vel,right_hip_angle_vel,right_knee_angle_vel
202,-5,0.7,4,63.30935252,1918,-524,-4786,-255,-1218,-593,-3784,-7720,796,-337,88,1730,59.7,65.11,60.12,66.1241745,0,0.000698148,0,-0.081513526
202,-5,0.7,4,64.02877698,1718,-1180,-2700,330,-795,-167,-3418,-7492,884,-314,107,1412,59.7,65.10422959,60.12,66.01589029,0,-0.005770405,0,-0.108284207
202,-5,0.7,4,64.74820144,836,-1566,458,704,-468,989,-2990,-8108,918,-302,91,1137,59.7,65.04980256,60.12,65.88739129,0,-0.05442703,0,-0.128498999
202,-5,0.7,4,65.4676259,303.4826737,-1904.232652,913.185375,862.4651661,-309.0340185,1767.623437,-2844.04369,-8309.174589,891.0229592,-280.3633475,89.54411245,940.1105274,59.7,65.06733654,60.12,65.78294329,0,0.017533979,0,-0.104447996
202,-5,0.7,4,66.18705036,54,-2084,1064,999,-171,2400,-2767.829952,-8455.821857,816.0612245,-251.7118644,89.07001414,770.4699323,59.7,65.17041196,60.12,65.6986989,0,0.103075421,0,-0.084244391
202,-5,0.7,4,66.90647482,412.2962963,-1935.703704,444.3703704,1205.782365,66.63946884,2965.339356,-2687.201238,-8545.558196,702.0688776,-226.7044492,88.56090877,628.5943711,59.68904583,65.26471363,60.12,65.6145868,-0.01095417,0.094301667,0,-0.084112097
202,-5,0.7,4,67.62589928,1077.703704,-1660.296296,-706.3703704,1450.0562,328.5419566,3475.37423,-2528,-8576,558,-216,87,515,59.66323399,65.36713795,60.12,65.51763664,-0.025811837,0.102424322,0,-0.096950164
202,-5,0.7,4,68.34532374,1436,-1512,-1326,1703,452,3975,-1938,-7858,252,-235,38,435,59.64243092,65.4860354,60.12,65.38420731,-0.020803072,0.118897442,0,-0.133429333
202,-5,0.7,4,69.0647482,1426.625,-1800.758716,-1151.625,1971.264715,450.7245303,4475.607843,-2152,-7762,614,-169,3,434,59.65898438,65.65405518,60.12,65.2343888,0.016553454,0.168019786,0,-0.149818509
202,-5,0.7,4,69.78417266,1406,-2479.023243,-768,2258.617624,446.6820809,4964.984572,-1846,-8090,954,-162,57,327,59.7,65.83,60.12,65.11147261,0.041015625,0.175944819,0,-0.12291619
202,-5,0.7,4,70.50359712,1385.375,-3264.776148,-384.375,2531.911721,439.548591,5452.619015,-2054,-7298,1052,-175,38,349,59.66214126,65.8787155,60.08735599,65.11,-0.037858742,0.048715501,-0.032644006,-0.001472608
202,-5,0.7,4,71.22302158,1376,-3876,-210,2758,429,5948,-2028.208754,-7563.481481,894.8888889,-172.4074074,39.03703704,366.854559,59.64,65.93372666,60.06,65.11,-0.022141258,0.055011161,-0.027355994,0
202,-5,0.7,4,71.94244604,1462,-4218.655516,-242.6126582,2931.131388,308.763745,6477.573372,-1962.417508,-8056.518519,603.1111111,-167.5925926,40.96296296,383.9624514,59.64,66.03470551,60.06,65.11,0,0.10097885,0,0
202,-5,0.7,4,72.6618705,1548,-4582,-324,3072,119,6968,-1874,-8322,446,-165,42,409,59.64,66.05,60.06,65.13000407,0,0.015294488,0,0.020004071
202,-5,0.7,4,73.38129496,1534,-5155.69685,-559.1905145,3181.580717,-30.84788364,7378.348066,-1726.048367,-8135,637,-173.2279412,31.5,472.3902878,59.64,66.05,60.06,65.17930185,0,0,0,0.049297781
202,-5,0.7,4,74.10071942,1520,-6000,-1000,3285,-177,7694,-1502,-7948,828,-189,21,542,59.64,66.11423304,60.06,65.18,0,0.06423304,0,0.000698148
202,-5,0.7,4,74.82014388,1850,-7540,-1854,3407,-318,7877,-1170,-8116,640,-208,48,577,59.64,66.25604832,60.06257813,65.1834375,0,0.141815278,0.002578125,0.0034375
202,-5,0.7,4,75.53956835,1731,-8675.259339,-1586.44898,3477.462777,-503.6308118,8041.804636,-969.7721764,-8099.373786,769,-224.2058824,38.5,678.9669572,59.64,66.52722369,60.110625,65.2475,0,0.271175375,0.048046875,0.0640625
202,-5,0.7,4,76.25899281,1612,-9666,-1094,3510,-652,8165,-876,-8066,898,-246,29,826,59.65898438,66.57,60.12,65.26,0.018984375,0.042776308,0.009375,0.0125
202,-5,0.7,4,76.97841727,1810,-10652.01572,-430.5510204,3425.902655,-721.2396313,8240.530075,-1190,-8020,878,-303,51,985,59.7,66.57,60.12,65.26,0.041015625,0,0,0
202,-5,0.7,4,77.69784173,2008,-11536,8,3289,-752,8276,-1538.004473,-7930.053191,940.0817942,-387.4757589,106.2439024,1069.455559,59.7,66.53439088,60.12,65.29212914,0,-0.035609124,0,0.032129136
202,-5,0.7,4,78.41726619,1956,-12240,-278,3187,-735,8203,-1766,-7868,1064,-453,147,1139,59.70553711,66.46893785,60.12,65.34440469,0.005537109,-0.065453023,0,0.052275557
202,-5,0.7,4,79.13669065,1599.5853,-12270.8642,-924.1897689,3075.967594,-517.0767283,8041.113253,-1804,-8260,1232,-470,141,1218,59.75446289,66.37751515,60.12,65.39325174,0.048925781,-0.091422707,0,0.048847048
202,-5,0.7,4,79.85611511,1078,-12280,-1514,2953,-105,7847,-1924.316594,-8256.418182,1187.541353,-529.0039436,118.8225806,1346.637622,59.76,66.28377248,60.12,65.39180352,0.005537109,-0.093742668,0,-0.001448222
202,-5,0.7,4,80.57553957,584.8632637,-12084.72444,-1746.736306,2806.05152,486.589724,7697.510987,-2018,-8244,1086,-614,101,1468,59.76,66.2,60.12,65.35111212,0,-0.083772478,0,-0.040691397
202,-5,0.7,4,81.29496403,288,-11746,-1848,2650,1134,7545,-1710,-7704,878,-697,139,1530,59.78904824,66.1539837,60.12,65.29572259,0.029048244,-0.046016295,0,-0.055389537
202,-5,0.7,4,82.01438849,270.1769042,-11364.27556,-1466.582136,2500.127836,1618.748656,7362.389523,-2296,-7384,838,-705,141,1577,59.83107858,66.09492227,60.11505394,65.24427611,0.042030334,-0.059061437,-0.004946061,-0.051446472
202,-5,0.7,4,82.73381295,264,-11126,-964,2352,2058,7159,-2308.954211,-7599.10418,685.7567141,-719.1518517,196.8745583,1571.5,59.86892142,65.99011427,60.0684022,65.18797358,0.037842843,-0.104807994,-0.04665174,-0.056302538
202,-5,0.7,4,83.45323741,354,-11360,-786,2207,2479,6931,-2322,-7878,470,-742,251,1566,59.91095176,65.98,60.06,65.18,0.042030334,-0.010114273,-0.008402198,-0.007973576
202,-5,0.7,4,84.17266187,339.3519856,-11285.79976,-565.3915603,2092.837104,2719.928825,6738.170531,-3090,-7970,278,-790,218,1596,59.94,65.98,60.06,65.18,0.029048244,0,0,0
202,-5,0.7,4,84.89208633,294,-11126,-326,1997,2849,6543,-2562,-7578,198,-815,281,1565,59.94,66.07570313,60.03069001,65.18,0,0.095703125,-0.029309994,0
202,-5,0.7,4,85.61151079,-84,-10854,-86,1920,2877,6305,-2732,-7303.269958,251,-828.9162069,278,1544.742462,59.94,66.11491697,59.98787299,65.18,0,0.039213841,-0.042817016,0
202,-5,0.7,4,86.33093525,270.3348281,-10855.01081,91.5282203,1794.86685,2824.73665,5957.526347,-2902,-7168,304,-842,275,1535,59.94,66.07196247,59.945862,65.18,0,-0.042954499,-0.042010991,0
202,-5,0.7,4,87.05035971,778,-10858,272,1626,2712,5492,-2863.62963,-7267.932569,201.8518519,-860.3619238,276.2962963,1564.1174,59.94,65.99730342,59.94,65.18,0,-0.07465905,-0.005861999,0
202,-5,0.7,4,87.76978417,1024.917647,-11041.98919,592.5795964,1393.911102,2522.044676,4831.12909,-2792.37037,-7472.309583,12.14814815,-882.4108469,278.7037037,1621.901468,59.94,65.91,59.94,65.18,0,-0.087303417,0,0
202,-5,0.7,4,88.48920863,1254,-11224,806,1126,2259,3987,-2754,-7638,-90,-908,280,1664,59.94624,65.88601024,59.97785874,65.18,0.00624,-0.02398976,0.037858742,0
202,-5,0.7,4,89.20863309,1554.112797,-10880.29662,674.9168107,845.8712433,1934.25295,2882.227732,-2842,-7716,52,-941,275,1678,59.96112,65.87166385,60,65.18,0.01488,-0.014346389,0.022141258,0
202,-5,0.7,4,89.92805755,1888.232194,-10082.81546,402.9447326,560.2644505,1563.589438,1613.702205,-2478,-7902,112,-944,378,1723,59.97888,65.86131234,60,65.18,0.01776,-0.01035151,0,0
202,-5,0.7,4,90.64748201,2220,-9182,172,331,1251,567,-2646.485782,-7743,271.2165525,-997.9731996,417.9922846,1783.831392,59.99376,65.84930722,60,65.19895548,0.01488,-0.01200512,0,0.018955479
202,-5,0.7,4,91.36690647,2536,-8184,48,184,1041,-101,-2866,-7584,392,-1073,444,1854,60,65.83,60,65.26,0.00624,-0.019307221,0,0.061044521
202,-5,0.7,4,92.08633094,2768,-7822,-116,42,782,-750,-2940,-7744,394,-1112,465,1930,60,65.79189857,60,65.29821961,0,-0.038101431,0,0.038219612
202,-5,0.7,4,92.8057554,2844.125741,-7532.121561,-193.9979063,-10.33910273,584.700186,-1120.021692,-2955.595442,-7871.919118,408.8897352,-1143.374652,494.0462466,2009.256384,60.00553711,65.74513548,60,65.35148231,0.005537109,-0.046763091,0,0.053262696
202,-5,0.7,4,93.52517986,2889.516209,-7287.171891,-249.1100643,-44.52605611,409.6765848,-1397.295922,-2970,-8032,452,-1161,548,2096,60.05446289,65.69452045,60,65.44851769,0.048925781,-0.050615031,0,0.097035384
202,-5,0.7,4,94.24460432,2952,-7184,-270,-61,201,-1582,-3020,-8396,854,-1163,787,2201,60.06,65.71847168,60,65.50246351,0.005537109,0.023951233,0,0.053945815
202,-5,0.7,4,94.96402878,3076,-7196,-152,-66,-99,-1684,-2750.578859,-8783.080736,758.611474,-1219.137555,883.5264727,2214.401405,60.06,65.75836307,60,65.54,0,0.039891393,0,0.037536493
202,-5,0.7,4,95.68345324,3378,-6944,-232,-61,-265,-1829,-2162.046607,-9149.917341,525.0007258,-1335.690279,947.5789777,2219.972286,60.06,65.62815523,60,65.58020059,0,-0.130207839,0,0.040200586
202,-5,0.7,4,96.4028777,3308,-6592,-236,-78,-561,-1937,-1584,-9320,232,-1445,991,2233,60.0515978,65.50428369,60,65.62426958,-0.008402198,-0.123871546,0,0.044068999
202,-5,0.7,4,97.12230216,1682,-13234,-1074,-182,-711,-1757,-1018.26545,-9326.321748,-317.1045749,-1518.142373,1015.168056,2422.860726,60.00494606,65.42816413,60,65.67573042,-0.04665174,-0.076119555,0,0.05146083
202,-5,0.7,4,97.84172662,1919.402985,-5107,2922,61.5,-110,-1945,-684,-9334,-718,-1596,1044,2763,60,65.30543467,59.97785874,65.72678089,-0.004946061,-0.122729458,-0.022141258,0.051050476
202,-5,0.7,4,98.56115108,2210,3020,6918,305,491,-2133,-852,-10146,-592,-1709,1160,3153,60,65.16945576,59.94,65.76,0,-0.135978912,-0.037858742,0.033219108
202,-5,0.7,4,99.28057554,2282,-6892,518,-312,-1474,-1369,-896,-11526,-152,-1852,1200,3444,60,65.06585742,59.94,65.76,0,-0.103598344,0,0
202,-5,0.7,4,100,-29.55555556,-5491.481481,-2576.680917,-254.7037037,-1472.102909,-1377.235614,-434,-14270,1230,-1995,1300,3871,60,65.04,59.92485597,65.7658019,0,-0.025857418,-0.015144033,0.005801896
202,-5,0.7,1,0,-4322.444444,-2890.518519,-4774.229347,-148.2962963,-1465.094707,-1404.804561,434,-16806,1672,-2059,1381,3937,60,65.04,59.83514403,65.81055355,0,0,-0.089711934,0.044751654
202,-5,0.7,1,0.699300699,-6634,-1490,-5610,-91,-1451,-1456,232,-17330,3312,-1982,1379,4526,60,65.01902707,59.83898438,65.8655916,0,-0.020972929,0.003840342,0.05503805
202,-5,0.7,1,1.398601399,-6134,-9636,-5266,-187,445,-1963,-56.5488238,-16969.82799,2811.431303,-2020.37037,1405.123603,4822.215512,59.99940159,64.96421031,59.88,65.91,-0.000598412,-0.054816761,0.041015625,0.0444084
202,-5,0.7,1,2.097902098,-3286.191742,-11526.15366,71.00505014,341.5,387.6920415,-2809.06438,-435.8513606,-16082.98931,1776.640383,-2091.62963,1470.802762,5033.877804,59.95714635,64.88380665,59.88,65.89241367,-0.042255241,-0.080403661,0,-0.017586332
202,-5,0.7,1,2.797202797,306,-12208,5114,870,249,-3366,-934,-14960,908,-2130,1557,5200,59.94,64.79324357,59.88,65.85746362,-0.017146346,-0.090563074,0,-0.034950051
202,-5,0.7,1,3.496503497,2353.04415,-10191,5026.480798,425.0031818,-271.6920415,-3352,-1649.885919,-12790.94352,393.3493891,-1911,1693.035586,5323.913639,59.94,64.70276529,59.88,65.83186326,0,-0.090478282,0,-0.025600356
202,-5,0.7,1,4.195804196,3858,-8174,4778,-207,-711,-3338,-2828,-11194,40,-1692,1887,5447,59.96735599,64.64548245,59.94642377,65.85207477,0.027355994,-0.057282846,0.066423774,0.020211507
202,-5,0.7,1,4.895104895,5071.285714,-11647,855.519202,-587.0031818,-258.6517341,-3658.861255,-6421.25223,-11443,-173.3762712,-1711,2151.173479,5692.675492,59.99932617,64.62,60.06,65.91,0.031970178,-0.025482446,0.113576226,0.057925232
202,-5,0.7,1,5.594405594,5682,-15120,-2906,-780,239,-4194,-9844,-11692,-272,-1730,2435,5861,59.95391602,64.62,60.02214126,65.96161544,-0.045410156,0,-0.037858742,0.051615442
202,-5,0.7,1,6.293706294,-78,-6108,-2050,-566,294,-4623,-10819.59581,-11394.94966,232.4136933,-1687.807339,2634.139746,5315.374161,59.94,64.64640604,60,65.98,-0.013916016,0.026406036,-0.022141258,0.018384558
202,-5,0.7,1,6.993006993,1543,-6799.760417,131.0686077,-432.9427935,147.1592689,-4361.486177,-11220,-10592,1084,-1604,2879,4233,59.94,64.74962963,60,65.98,0,0.103223594,0,0
202,-5,0.7,1,7.692307692,3164,-7540,1746,-370,-26,-3976,-7982,-7510,1792,-1492,3453,2792,59.94,64.76,60,65.98,0,0.01037037,0,0
202,-5,0.7,2,8.391608392,2437,-7593.953869,1352.899083,-422.5,-70.65926893,-3756.151515,-4298.868276,-4969.098441,1804.437326,-998.5151115,3418.757905,1357.775935,59.94,64.76010376,59.99880318,65.98,0,0.000103757,-0.001196825,0
202,-5,0.7,2,9.090909091,1710,-7644,722,-475,-89,-3574,-2158,-2154,1808,-363,3311,296,59.94,64.77106182,59.91429269,65.98,0,0.010958067,-0.084510482,0
202,-5,0.7,2,9.79020979,2692,-7852,272,-381,24,-3419,-2324,2290,-1804,35,2285,-131,59.94,64.79487572,59.8884022,65.98674826,0,0.023813898,-0.025890495,0.006748259
202,-5,0.7,2,10.48951049,2941.993205,-7907.467674,159.6761134,-319.4883845,-46.5,-3089.986414,-1030,4442,-3110,47,1432,366,59.94,64.82414339,59.93505394,66.03559531,0,0.029267672,0.04665174,0.048847048
202,-5,0.7,2,11.18881119,3034,-7964,80,-265,-117,-2722,-1558,1900,-3878,219,1088,70,59.96735599,64.8684154,59.94,66.08787086,0.027355994,0.044272003,0.004946061,0.052275557
202,-5,0.7,2,11.88811189,2684,-8192,-34,-204,-82,-2475,-954,1482,-2608,680,611,-657,60,64.8986037,59.94,66.11930185,0.032644006,0.030188308,0,0.031430989
202,-5,0.7,2,12.58741259,2932,-8326,-66,-137,-56,-2108,-957.9849818,1032.261189,-2265.715132,1019.588801,308.9859344,-1283.803125,60,64.80000814,59.94,66.07000407,0,-0.098595563,0,-0.049297781
202,-5,0.7,2,13.28671329,3717.927123,-8077,472,-72.43757395,-58.49038462,-1692.987416,-969.7005228,579.4721024,-1974.080771,1331.961112,27.84769095,-1892.764524,60,64.76,59.94,66.0609375,0,-0.040008142,0,-0.009066571
202,-5,0.7,2,13.98601399,4330,-7828,1010,-33,-63,-1303,-988.7875162,117.4596353,-1730.324841,1619.468059,-229.8838138,-2480.099363,60,64.76,59.94,66.11699219,0,0,0,0.056054688
202,-5,0.7,2,14.68531469,4072.795734,-7864.476286,958.125,-25.04812907,-66.7458194,-968.9832228,-1014.886855,-359.9493164,-1531.675264,1884.460764,-461.6776633,-3042.02281,60.03,64.76,59.94,66.12,0.03,0,0,0.003007813
202,-5,0.7,2,15.38461538,3454.121956,-7951.270096,844,-19.43167028,-70.61705686,-653.4613959,-1047.639433,-858.9278573,-1375.359965,2129.290352,-665.0029408,-3574.750031,60.06,64.76535722,59.94,66.12,0.03,0.005357216,0,0
202,-5,0.7,2,16.08391608,2703.387201,-8054.428859,729.875,-16.09937636,-75.67976589,-390.4588711,-1086.686144,-1385.649092,-1258.606865,2356.307945,-837.3287298,-4074.496194,60.06,64.87079178,59.94,66.12,0,0.105434561,0,0
202,-5,0.7,2,16.78321678,2050,-8140,678,-15,-83,-214,-1131.667879,-1946.286124,-1178.643889,2567.864669,-976.1241138,-4537.476465,60.04748219,64.9,59.94,66.12910959,-0.01251781,0.029208223,0,0.009109589
202,-5,0.7,2,17.48251748,1418.939022,-8214.364952,770.0930233,-27.69536424,-107.701087,-99.03860159,-1182.225534,-2547.012059,-1132.698959,2766.311646,-1078.858176,-4959.906012,60.00229595,64.9,59.94,66.18964041,-0.045186241,0,0,0.060530822
202,-5,0.7,2,18.18181818,1052,-8256,898,-42,-128,-45,-1238,-3194,-1118,2954,-1143,-5338,60,64.865,59.94,66.23060176,-0.00229595,-0.035,0,0.040961348
202,-5,0.7,2,18.88111888,1104,-8036,954,-44,-106,-54,-1334.384825,-3971.013948,-1178.148148,3133.866778,-1184.593511,-5672.566007,59.99873111,64.83148037,59.94,66.27640886,-0.001268887,-0.033519632,0,0.045807101
202,-5,0.7,2,19.58041958,826,-8318,996,-51,-72,-70,-1490.149758,-4867.021243,-1289.851852,3293.671722,-1215.7412,-5963.355614,59.96393689,64.87207363,59.94,66.37828292,-0.034794223,0.04059326,0,0.101874058
202,-5,0.7,2,20.27972028,620,-8082,940,-56,-86,-122,-1680,-5746,-1350,3413,-1228,-6205,59.91111111,64.9337037,59.94,66.44325827,-0.052825778,0.061630075,0,0.064975349
202,-5,0.7,2,20.97902098,307.6045627,-8058.868889,949.5454545,-59.91363636,-73.5,-205.8660988,-1945.822221,-6608.775453,-1308.661088,3489.165628,-1219.145038,-6398.020542,59.8803239,64.96962212,59.94,66.47798714,-0.030787211,0.035918413,0,0.034728874
202,-5,0.7,2,21.67832168,108,-8038,960,-63,-61,-310,-2250,-7354,-1220,3550,-1199,-6557,59.88,64.97,59.94,66.52421375,-0.0003239,0.000377884,0,0.046226608
202,-5,0.7,2,22.37762238,156,-7819.047619,961.4545455,-64.58080808,-77.30909091,-419.1695114,-2533.39182,-7887.476889,-1071.107078,3621.405622,-1159.224509,-6693.770749,59.88,64.96842773,59.94067383,66.5746221,0,-0.001572266,0.000673828,0.050408355
202,-5,0.7,2,23.07692308,204,-7620,962,-67,-100,-550,-2782,-8286,-872,3662,-1097,-6810,59.88,64.8624707,59.98608398,66.61806552,0,-0.105957031,0.045410156,0.043443414
202,-5,0.7,2,23.77622378,98,-8318,714,-105,-110,-734,-2956,-8542,-656,3635,-1006,-6904,59.88,64.83,60,66.66342373,0,-0.032470703,0.013916016,0.045358213
202,-5,0.7,2,24.47552448,-278,-8270,802,-84,-104,-823,-2991.514706,-8944.957409,-614.4462151,3592.526618,-936.3421788,-6993.302475,59.88,64.83,60,66.71104079,0,0,0,0.047617058
202,-5,0.7,2,25.17482517,-82.96276596,-8373,967.4346108,-99.24651568,-108.5,-942.788256,-3004,-9368,-600,3558,-901,-7075,59.88,64.77657554,59.97264401,66.7505724,0,-0.053424462,-0.027355994,0.039531606
202,-5,0.7,2,25.87412587,314,-8476,1168,-130,-113,-1078,-2914.62537,-9756.053922,-669.2200957,3547.978566,-980.6589877,-7139.776504,59.88257813,64.66544366,59.94,66.79611745,0.002578125,-0.111131879,-0.032644006,0.045545054
202,-5,0.7,2,26.57342657,884,-7884,1354,-173,-108,-1217,-2734,-9970,-748,3539,-1143,-7208,59.930625,64.50520455,59.94,66.88883793,0.048046875,-0.160239111,0,0.092720483
202,-5,0.7,2,27.27272727,1116,-8110,1154,-207,-126,-1297,-2480,-9754,-760,3520,-1377,-7308,59.94,64.48,59.94,66.96332169,0.009375,-0.025204547,0,0.074483756
202,-5,0.7,2,27.97202797,1198,-5926,58,-504,-149,-1415,-2350,-9684,-614,3510,-1549,-7375,59.94,64.48,59.94,67.01080905,0,0,0,0.047487364
202,-5,0.7,2,28.67132867,1147,-6788,458.2514793,-445,-133.3860104,-1496.096929,-2180.580968,-9868.965579,-537.3349425,3511.862371,-1683.10684,-7393.589017,59.94,64.48,59.94,67.05117746,0,0,0,0.040368406
202,-5,0.7,2,29.37062937,1096,-7650,928,-386,-107,-1575,-1985.933845,-10275.26449,-481.2950784,3516.835854,-1799.328033,-7405.072286,59.93742188,64.4779205,59.93770405,67.10759386,-0.002578125,-0.002079498,-0.00229595,0.056416403
202,-5,0.7,2,30.06993007,1608,-7592,1018,-466,-85,-1682,-1790,-10680,-414,3524,-1900,-7409,59.889375,64.43048588,59.89251781,67.26144647,-0.048046875,-0.047434625,-0.045186241,0.15385261
202,-5,0.7,2,30.76923077,1360,-8068,1042,-442,-167,-1672,-1600,-11008,-312,3540,-1982,-7340,59.88,64.37933523,59.88,67.34938204,-0.009375,-0.051150651,-0.01251781,0.08793557
202,-5,0.7,2,31.46853147,1868,-7680,1080,-485,-155,-1710,-1313.65685,-11342.98962,-104.9756278,3538.358852,-2069.497488,-7199.880516,59.88,64.3404632,59.88,67.39133057,0,-0.038872025,0,0.041948527
202,-5,0.7,2,32.16783217,2197.760148,-7792,837,-510.2389706,-169.5,-1706.17228,-1004,-11598,174,3533,-2159,-6978,59.88,64.37635355,59.88,67.43216275,0,0.035890351,0,0.040832178
202,-5,0.7,2,32.86713287,2356,-7904,594,-525,-184,-1695,-748,-11708,496,3459,-2248,-6584,59.88,64.46344392,59.87770405,67.48343924,0,0.087090372,-0.00229595,0.05127649
202,-5,0.7,2,33.56643357,2326,-7628,862,-530,-172,-1632,-626,-11708,696,3344,-2297,-6244,59.88,64.53771117,59.83251781,67.57939542,0,0.07426725,-0.045186241,0.095956186
202,-5,0.7,2,34.26573427,2311.028571,-7624.332536,858.1233584,-551.3484895,-181.8518519,-1620.988484,-674,-11146,854,3109,-2237,-5607,59.86608398,64.55,59.82,67.67540588,-0.013916016,0.012288826,-0.01251781,0.096010458
202,-5,0.7,2,34.96503497,2300.210762,-7622.499601,847.1356057,-584.7918035,-200.1481481,-1615.82652,-1411.501986,-11037.67336,892.1485923,2676.137745,-2002.599404,-4975.731205,59.82067383,64.55,59.82,67.76938894,-0.045410156,0,0,0.093983062
202,-5,0.7,2,35.66433566,2282,-7622,830,-607,-210,-1606,-2108,-11000,930,2162,-1674,-4314,59.82,64.55,59.82,67.90240045,-0.000673828,0,0,0.133011506
202,-5,0.7,2,36.36363636,2226,-7808,778,-613,-201,-1569,-1576,-11130,1082,1703,-1394,-3560,59.81505394,64.55577041,59.81982788,68.01749144,-0.004946061,0.005770405,-0.000172119,0.115090997
202,-5,0.7,2,37.06293706,2252,-7902.252768,747.5030561,-635.8931133,-227.556701,-1571.429204,-2072.995163,-11413.96686,793,1196.212774,-1238.343725,-2145.602858,59.7684022,64.61019744,59.80360474,68.08921962,-0.04665174,0.05442703,-0.016223145,0.071728176
202,-5,0.7,2,37.76223776,2278,-7944,716,-669,-265,-1578,-2742,-11616,504,730,-1068,-710,59.76,64.62,59.77639526,68.14487397,-0.008402198,0.009802565,-0.027209473,0.055654348
202,-5,0.7,2,38.46153846,2207,-7895.312849,640.5052083,-697.9643963,-284.743299,-1617.24435,-3072.004837,-11122.17877,1015,371.0393192,-648.6545694,149.8929606,59.76,64.62,59.76017212,68.16976787,0,0,-0.016223145,0.024893902
202,-5,0.7,2,39.16083916,2136,-7804,586,-732,-298,-1682,-3230,-10072,1526,80,-134,821,59.76,64.57847168,59.784488,68.14355899,0,-0.04152832,0.024315883,-0.026208876
202,-5,0.7,2,39.86013986,2345.062987,-7673.687151,690,-783.1716173,-303.0333333,-1760.406247,-2952,-8352,816,-136,274,1357,59.76,64.55,59.82814801,68.06900605,0,-0.02847168,0.04366001,-0.074552939
202,-5,0.7,2,40.55944056,2740,-7586,794,-840,-310,-1820,-3253,-7455.863771,27.00084034,-239.7818439,541.5126073,1734.063568,59.76,64.55,59.87335311,67.86379974,0,0,0.045205096,-0.205206316
202,-5,0.7,2,41.25874126,3196,-7852,650,-889,-424,-1834,-3554,-6878,-428,-285,767,1994,59.76,64.55,59.88,67.66014209,0,0,0.006646892,-0.20365765
202,-5,0.7,2,41.95804196,3114.681759,-8905.906571,823,-888,-562.6043629,-1843.768387,-3307.841241,-6450.170304,-255.1538462,-267.5,996.7714383,2160.736111,59.76,64.55,59.88,67.48792384,0,0,0,-0.172218244
202,-5,0.7,2,42.65734266,2920,-9764,996,-887,-645,-1855,-3044,-6244,-8,-250,1205,2239,59.76,64.51936944,59.91,67.43053924,0,-0.030630558,0.03,-0.057384603
202,-5,0.7,2,43.35664336,2228.318241,-9486.690749,917.871789,-899.3117128,-547.5,-1874.453729,-3025.680573,-6278,144.1538462,-253,1393.666806,2206.097623,59.76,64.47067976,59.94,67.39119292,0,-0.048689682,0.03,-0.039346323
202,-5,0.7,2,44.05594406,1650,-8934,702,-929,-450,-1909,-3006,-6312,222,-256,1537,2141,59.76,64.4178457,59.94,67.34727002,0,-0.052834061,0,-0.043922899
202,-5,0.7,2,44.75524476,2150,-8188,-214,-1002,-517,-2008,-2812,-6292,138,-246,1611,2055,59.74101563,64.43214844,59.94,67.19100811,-0.018984375,0.014302739,0,-0.156261908
202,-5,0.7,2,45.45454545,1984.820375,-8380.815753,-88.36734694,-1024.504198,-568.931791,-2118.223161,-2798,-6088,-128,-210,1617,1863,59.7,64.48,59.94,66.94334039,-0.041015625,0.047851563,0,-0.247667717
202,-5,0.7,2,46.15384615,1728,-8746,110,-1043,-609,-2251,-2513.87891,-6830,-632.7624647,-179.7179307,1558.883853,1702.264271,59.7,64.44273623,59.94,66.96596682,0,-0.037263774,0,0.022626428
202,-5,0.7,2,46.85314685,1573.988523,-9283.184247,278.3673469,-1080.468473,-636.0484634,-2455.28065,-1972,-7572,-978,-130,1397,1510,59.7,64.40135179,59.94,67.02817423,0,-0.041384435,0,0.062207409
202,-5,0.7,2,47.55244755,1404,-9648,374,-1115,-658,-2664,-1450.194868,-3449,4247,608.0360523,-486.3838527,1032.038819,59.7,64.37298748,59.94,67.08122227,0,-0.028364308,0,0.053048036
202,-5,0.7,2,48.25174825,1112,-9638,212,-1130,-678,-2802,-412,674,9472,1643,-2266,678,59.7,64.35037714,59.94359616,67.08728125,0,-0.022610343,0.003596165,0.006058987
202,-5,0.7,2,48.95104895,1158,-9430,270,-1137,-775,-3110,8006,104,8922,2204,872,695,59.7,64.34009672,59.96884332,67.06789767,0,-0.010280418,0.025247156,-0.019383587
202,-5,0.7,2,49.65034965,845,-9703.46068,270,-1071,-748.5,-3385.403362,1306,-14778,10772,1660,2058,-1142,59.7,64.3686084,60.01033655,67.03517791,0,0.028511677,0.041493233,-0.03271976
202,-5,0.7,2,50.34965035,532,-10322,270,-1005,-722,-3644,4647.140579,-9829,488,303.3714835,1675.057426,-303.4626696,59.7,64.43190394,60.05868343,66.99543232,0,0.063295542,0.048346879,-0.039745588
202,-5,0.7,3,51.04895105,1047,-11758.46255,334.1163915,-1066.5,-742.210396,-3926.466658,8498,-4880,-9796,-839,905,1004,59.7,64.52861499,60.10449153,66.95497125,0,0.096711052,0.045808094,-0.040461072
202,-5,0.7,3,51.74825175,1562,-13372,522,-1128,-793,-4131,9146,-7680,-9178,-1024,-162,1856,59.7,64.58944499,60.14616081,66.91095922,0,0.060829993,0.041669281,-0.044012031
202,-5,0.7,3,52.44755245,1426,-14206,1606,-994,-938,-4198,6002.040761,-10044.90453,-3962.28656,-507,-757.8399348,2827.289233,59.7,64.62,60.17960025,66.87049899,0,0.030555015,0.033439446,-0.040460224
202,-5,0.7,3,53.14685315,352.7092652,-14004.24974,1479.41844,-1029,-1041.710868,-4505.781434,1262,-11286,1848,10,-1030,3540,59.7,64.62,60.18,66.901489,0,0,0.000399747,0.030990008
202,-5,0.7,3,53.84615385,-610,-13560,1218,-1064,-1122,-4877,-2115.368572,-9952.850288,3782.499347,-754.5,-204,3787.43362,59.7,64.62,60.18,66.95581708,0,0,0,0.054328081
202,-5,0.7,3,54.54545455,86,-12750,826,-1013,-1179,-5061,-4102,-8216,4612,-1519,622,3951,59.7,64.62,60.18,67.01205939,0,0,0,0.05624231
202,-5,0.7,3,55.24475524,1106,-12326,408,-1061,-1337,-5245,-4457.699925,-7444.961852,4048.875,-1477.59375,516.53125,4123.10717,59.7,64.64214844,60.16101563,67.02,0,0.022148437,-0.018984375,0.00794061
202,-5,0.7,3,55.94405594,2142,-11718,148,-970,-1568,-5230,-4706.344378,-6798.299424,2810,-1386.5,284.5,4290.317485,59.7,64.69,60.12,67.02,0,0.047851563,-0.041015625,0
202,-5,0.7,3,56.64335664,3552,-11762,-932,-1049,-1430,-5317,-4852.316642,-6353.487284,1571.125,-1295.40625,52.46875,4416.869057,59.7,64.64214844,60.12,66.91864208,0,-0.047851563,0,-0.101357918
202,-5,0.7,3,57.34265734,7662,-11150,-22,-909,-1594,-5598,-4900,-6188,1008,-1254,-53,4467,59.7,64.62883402,60.12257813,66.76325705,0,-0.013314418,0.002578125,-0.155385031
202,-5,0.7,3,58.04195804,9045.312794,-11747,1400.626209,-1023,-1726.563987,-5297.491296,-4042,-6963,1453,-1355.5,54.5,4084.345032,59.7,64.68116598,60.170625,66.6253708,0,0.052331962,0.048046875,-0.137886251
202,-5,0.7,3,58.74125874,9590,-12344,2346,-1137,-1874,-4713,-3184,-7738,1898,-1457,162,3570,59.7,64.69,60.18,66.47807367,0,0.008834019,0.009375,-0.147297129
202,-5,0.7,3,59.44055944,8868.24,-11222.58797,2398.013774,-1109.648,-2148.749396,-3874.638283,-3204,-7374,928,-1420,25,3372,59.7,64.69,60.18,66.35,0,0,0,-0.128073672
202,-5,0.7,4,60.13986014,7147.12,-8460.883921,2435.535496,-1044.424,-2540.52807,-2696.833068,-2866,-8116,12,-1371,41,3108,59.7,64.69,60.18,66.3028027,0,0,0,-0.047197299
202,-5,0.7,4,60.83916084,5092.88,-4962.685881,2460.250331,-966.576,-2947.032047,-1481.608712,-2915.283651,-8016.993151,-637.162424,-1219.738159,47.15762844,2848.223243,59.7,64.69,60.18,66.24844646,0,0,0,-0.05435624
202,-5,0.7,4,61.53846154,3371.76,-1631.791895,2473.843444,-901.352,-3265.957349,-530.9895707,-3054,-7836,-958,-990,53,2578,59.7,64.69,60.18,66.1515144,0,0,0,-0.096932059
202,-5,0.7,4,62.23776224,2650,628,2478,-874,-3395,-147,-3698,-7646,-874,-714,66,2274,59.7,64.71847168,60.18,66.04634245,0,0.02847168,0,-0.10517195
202,-5,0.7,4,62.93706294,2672,2046.743709,-836,-911.5,-2553.88571,-480,-3637.340659,-7696.061818,-373.7633294,-562.4117619,58.5,1988.544259,59.7,64.76,60.18,65.92421675,0,0.04152832,0,-0.122125699
202,-5,0.7,4,63.63636364,2694,2754,-4150,-949,-1215,-813,-3506,-7802,184,-458,51,1700,59.7,64.76,60.18,65.733557,0,0,0,-0.190659748
202,-5,0.7,4,64.33566434,1156,-824,-3256,-106,-284,-275,-3202.659341,-7972.014219,374.6139585,-381.7957594,83.5,1347.222315,59.69446289,64.76446045,60.17446289,65.57812321,-0.005537109,0.004460449,-0.005537109,-0.155433796
202,-5,0.7,4,65.03496503,1057.706835,-1239.335276,-2081.33441,118.7550488,38.99301491,471.6931756,-2970,-8196,510,-324,116,1061,59.64553711,64.81487549,60.12553711,65.49771951,-0.048925781,0.050415039,-0.048925781,-0.080403699
202,-5,0.7,4,65.73426573,996.4060756,-1506.631356,-724.0750308,248.8833486,245.6124436,1367.680369,-3412,-8438,634,-281,83,938,59.64,64.85834822,60.12,65.37929164,-0.005537109,0.043472727,-0.005537109,-0.118427867
202,-5,0.7,4,66.43356643,964.9022784,-1649.611759,397.2218635,350.3199741,406.4256505,2281.077378,-3344.946031,-8223,831.6887872,-256.4766335,78.48469388,766.9846702,59.64,64.9058275,60.12,65.26,0,0.047479286,0,-0.119291643
202,-5,0.7,4,67.13286713,956,-1692,864,489,592,3080,-3194,-8008,960,-243,77,596,59.64,64.97989297,60.12,65.19796613,0,0.074065471,0,-0.062033872
202,-5,0.7,4,67.83216783,1234.304348,-1282.212454,-216.2880911,693.8042403,823.4838546,3742.418762,-2827.845323,-8128.296296,955.537959,-239.5473997,83.22222222,442.8277149,59.64,65.09859878,60.12,65.18,0,0.118705809,0,-0.017966128
202,-5,0.7,4,68.53146853,1548,-818,-1340,918,1039,4310,-2281.991173,-8351.703704,943.5203625,-237.7253727,94.77777778,305.5249686,59.64,65.2883365,60.12,65.18,0,0.189737715,0,0
202,-5,0.7,4,69.23076923,1592,-750,-1390,1139,1208,4756,-1882,-8472,926,-234,101,246,59.64,65.39890958,60.12,65.2053125,0,0.110573086,0,0.0253125
202,-5,0.7,4,69.93006993,1635.728324,-1236.802076,-1030.663272,1421.803822,1298.319507,5252.655391,-1675.365283,-8423.324201,867.1031294,-197.5362454,82.82075472,275.4134078,59.64,65.47,60.12,65.26,0,0.071090417,0,0.0546875
202,-5,0.7,4,70.62937063,1660,-2078,-500,1691,1339,5785,-1578,-8308,818,-164,60,327,59.64,65.51187991,60.07898438,65.2053125,0,0.041879906,-0.041015625,-0.0546875
202,-5,0.7,4,71.32867133,1541.777778,-2862.843795,-136.6727021,1896.515995,1214.130497,6388.369609,-1647,-7992.963851,958.8847737,-171.8947368,51.67924528,372.9805316,59.630625,65.57047261,60.06757202,65.18,-0.009375,0.058592707,-0.011412359,-0.0253125
202,-5,0.7,4,72.02797203,1322.222222,-3687.159791,179.1080934,2073.192006,940.1498835,7018.564065,-1716,-7596,1152,-188,48,425,59.58257813,65.67181719,60.11242798,65.18,-0.048046875,0.101344578,0.044855967,0
202,-5,0.7,4,72.72727273,1204,-4382,314,2207,668,7542,-1524.779376,-7266.711948,1254.115226,-210.6011981,58.8,486.9029356,59.58,65.75258755,60.12,65.2053125,-0.002578125,0.080770363,0.007572016,0.0253125
202,-5,0.7,4,73.42657343,1240,-4868,-160,2292,449,7898,-1232,-7086,1304,-240,75,558,59.58,65.83,60.12,65.26,0,0.077412445,0,0.0546875
202,-5,0.7,4,74.12587413,1892,-6044,-1682,2452,362,8102,-1053.530335,-7455,1237.961165,-271.1156929,83.40895522,635.7706473,59.58,65.93105281,60.12,65.26,0,0.101052808,0,0
202,-5,0.7,4,74.82517483,2150,-6950,-2112,2631,354,8114,-882,-7824,1152,-311,93,729,59.58658278,66.00010529,60.1284022,65.2755051,0.006582778,0.06905248,0.008402198,0.015505103
202,-5,0.7,4,75.52447552,2322.958212,-7718.848736,-1723.057519,2831.817451,263.1271595,8346.301807,-628.6902887,-7762,1115.038835,-381.9283721,119.0717465,860.8754022,59.62991058,66.03787275,60.17505394,65.37686873,0.043327799,0.037767461,0.04665174,0.101363628
202,-5,0.7,4,76.22377622,2444,-8508,-878,2948,112,8621,-470,-7700,1098,-455,142,1006,59.65815772,66.0870011,60.18,65.44108892,0.028247147,0.049128349,0.004946061,0.064220184
202,-5,0.7,4,76.92307692,2512,-9502,600,2916,-35,8693,-624.3578275,-7703.426121,1225.692308,-494.2455153,145.7733523,1125.731371,59.6822516,66.14829094,60.18,65.46875171,0.024093877,0.06128984,0,0.027662799
202,-5,0.7,4,77.62237762,2711.375,-11188.34164,413.6989559,2921,-158.3861059,8640.774624,-918,-7714,1418,-536,150,1259,59.6977296,66.19302905,60.18,65.37705075,0.015478001,0.044738116,0,-0.09170096
202,-5,0.7,4,78.32167832,2864,-12304,38,2926,-223,8529,-1264,-7800,1530,-620,182,1460,59.7,66.18933321,60.18,65.33,0.002270398,-0.003695841,0,-0.047050754
202,-5,0.7,4,79.02097902,2260.776992,-12227.96166,-637.6989559,2923.928251,30.7537358,8335.0167,-1350.27551,-7738.219937,1433,-712.8609667,174.5,1670.106669,59.7,66.13511086,60.18,65.33,0,-0.054222353,0,0
202,-5,0.7,4,79.72027972,1554,-12080,-1124,2918,489,8094,-1416,-7610,1336,-801,167,1840,59.7244043,66.09181242,60.1555957,65.26898926,0.024404297,-0.043298444,-0.024404297,-0.061010742
202,-5,0.7,4,80.41958042,1411.442382,-11915.12435,-941.3723206,2832.987306,996.4359504,7879.189708,-1511.014356,-7355.780063,1411,-872.6845595,183.2058391,1939.609693,59.76,66.0438156,60.12,65.18,0.035595703,-0.047996816,-0.035595703,-0.088989258
202,-5,0.7,4,81.11888112,1308,-11678,-640,2703,1450,7676,-1656,-7168,1486,-936,222,2006,59.76,65.95696878,60.12,65.18,0,-0.086846818,0,0
202,-5,0.7,4,81.81818182,1174,-11236,-406,2612,1682,7499,-2032,-7972,950,-992,315,2043,59.77251781,65.86597526,60.12,65.18,0.01251781,-0.090993527,0,0
202,-5,0.7,4,82.51748252,1468,-11138,-178,2452,1897,7288,-2106,-7712,508,-1012,303,2058,59.81770405,65.7776548,60.12,65.18,0.045186241,-0.088320454,0,0
202,-5,0.7,4,83.21678322,1650,-11238,-128,2358,2003,7169,-2684,-7552,476,-999,312,2080,59.82,65.67182577,60.12,65.15416853,0.00229595,-0.105829032,0,-0.025831468
202,-5,0.7,4,83.91608392,1510.92763,-11166,-130.6913499,2248.338331,1976.059322,7053.583153,-2667.731158,-7573.259259,422.743756,-1016.222222,327.2474862,2093.897436,59.82016195,65.61080975,60.12,65.11,0.00016195,-0.061016018,0,-0.044168532
202,-5,0.7,4,84.61538462,1192,-11094,-140,2121,1915,6915,-2626.128982,-7612.740741,362.5941002,-1054.111111,347.4762457,2105.282051,59.83555556,65.68777778,60.09216797,65.11972963,0.015393605,0.076968027,-0.027832031,0.009729629
202,-5,0.7,4,85.31468531,530,-15378,-514,1960,1793,6686,-2570,-7634,334,-1092,369,2122,59.86196844,65.81984222,60.03796875,65.14365726,0.026412889,0.132064446,-0.054199219,0.023927629
202,-5,0.7,4,86.01398601,2300,-9988,476,1852,1867,6272,-2435.052448,-7616.163934,648,-1123.748069,397.235623,2158.79646,59.87936556,65.90682778,60.00134766,65.173891,0.017397112,0.086985558,-0.036621094,0.030233745
202,-5,0.7,4,86.71328671,2448,-8232,-526,1460,1646,5793,-2330,-7566,962,-1154,415,2210,59.88,65.835,60,65.21212893,0.000634444,-0.071827782,-0.001347656,0.038237922
202,-5,0.7,4,87.41258741,1342,-8806,-532,1448,1540,5322,-2798,-7334,694,-1180,402,2268,59.88229595,65.76573987,60,65.26,0.00229595,-0.069260126,0,0.047871074
202,-5,0.7,4,88.11188811,1375.490854,-9254.187293,-408.875,1385.061645,1320.190704,4711.238048,-3267.664784,-7367.185185,319.8241469,-1176.080102,427.3963502,2259.937129,59.92748219,65.87870548,59.95898438,65.31405139,0.045186241,0.112965601,-0.041015625,0.054051393
202,-5,0.7,4,88.81118881,1459.47561,-9670.944261,-138,1252.824098,1008.242431,3998.270575,-3701.387948,-7428.814815,-74.86570434,-1166.382425,491.2371449,2237.874259,59.94,65.91,59.9484022,65.3089945,0.01251781,0.031294525,-0.010582177,-0.005056888
202,-5,0.7,4,89.51048951,1569.222561,-9978.229098,132.875,1079.424502,712.1729429,3211.667814,-3892,-7462,-258,-1154,575,2205,59.94,65.91,59.99505394,65.19236515,0,0,0.04665174,-0.116629351
202,-5,0.7,4,90.20979021,1680,-10098,256,893,540,2380,-3492,-7182,288,-1135,714,2122,59.94,65.91,60,65.18,0,0,0.004946061,-0.012365154
202,-5,0.7,4,90.90909091,1793.12279,-9638.235713,63.91434263,655.9011371,487.2623664,1424.406018,-2922.662489,-7419.208716,270.8006282,-1174.640556,760.643611,2125.262209,59.94,65.91,60,65.18034348,0,0,0,0.000343476
202,-5,0.7,4,91.60839161,1930,-8940,-166,398,445,463,-2241.311102,-7952.723243,222.9683419,-1267.20815,794.8220987,2135.365891,59.94,65.91,60,65.2159446,0,0,0,0.035601126
202,-5,0.7,4,92.30769231,2110,-8522,-216,188,386,-326,-1669.804163,-8515.376148,150.1518846,-1373.171669,815.839537,2152.786627,59.95391602,65.91,60,65.29053629,0.013916016,0,0,0.074591683
202,-5,0.7,4,93.00699301,2257.556777,-8046.442568,-318.4133858,97.18868379,318.3313591,-766.3246306,-1430,-8840,58,-1453,823,2178,59.99932617,65.91,60,65.37627033,0.045410156,0,0,0.085734045
202,-5,0.7,4,93.70629371,2380,-7770,-390,53,243,-1076,-1583.210877,-8943.138379,-189.0544189,-1506.469921,793,2392.180422,59.97,65.8584619,60,65.47372248,-0.029326172,-0.051538104,0,0.097452148
202,-5,0.7,4,94.40559441,2494.636771,-8093,-376.0143623,44.32866407,134.1760125,-1302.690191,-1918,-8988,-430,-1538,763,2637,59.94,65.7489696,60,65.54,-0.03,-0.109492295,0,0.066277521
202,-5,0.7,4,95.1048951,2556,-8416,-338,36,65,-1493,-2514,-8662,-488,-1544,787,2698,59.94,65.60422997,60,65.54,0,-0.144739631,0,0
202,-5,0.7,4,95.8041958,2461.028264,-6760.37037,911.2107181,-25.1096328,351.7407407,-1699.271306,-3436,-8708,-492,-1643,912,2779,59.95251781,65.49387369,60.01251781,65.55460411,0.01251781,-0.110356283,0.01251781,0.014604112
202,-5,0.7,4,96.5034965,2208.723194,-3685.62963,3180.827581,-123.4992608,884.2592593,-1896.719882,-3259.200897,-9036.983724,-415.0429823,-1689.399192,908.8888889,2906.106005,59.99770405,65.41642891,60.05770405,65.60732139,0.045186241,-0.077444774,0.045186241,0.052717281
202,-5,0.7,4,97.2027972,1848,-2030,4398,-175,1171,-2039,-2893.06846,-9701.998456,-224.7526313,-1721.599534,903.1111111,3062.639227,60,65.32530282,60.0396784,65.61,0.00229595,-0.091126096,-0.018025646,0.002678608
202,-5,0.7,4,97.9020979,1103.685971,-4110.458346,3501.275622,-32.44918699,1064.090298,-2134.811828,-2584,-10444,18,-1765,900,3208,60,65.24829183,59.99627519,65.61117328,0,-0.077010988,-0.043403216,0.001173277
202,-5,0.7,4,98.6013986,-160,-6894,2536,163,807,-2181,-2444.530522,-11163.76837,333.7957277,-1861.40323,933.2036997,3317.492948,60,65.2012603,59.9523102,65.70248919,0,-0.047031533,-0.043964991,0.091315917
202,-5,0.7,4,99.3006993,-3048.342768,-8234.541654,2468.720293,266.449187,-127.0902978,-1830,-2270,-12126,854,-1945,1015,3437,59.98748219,65.15885874,59.94,65.78163427,-0.01251781,-0.042401557,-0.012310197,0.079145076
202,-5,0.7,4,100,-5218,-8872,2388,317,-911,-1479,-1648,-13864,2068,-1966,1232,3625,59.94229595,65.11837461,59.94,65.82332634,-0.045186241,-0.040484125,0,0.041692067
202,-5,0.7,1,0,-3544,-4058,-3640,-304,-386,-2087,-1032.659699,-14141.77822,1941.878821,-2049.181162,1219.555556,3847.251174,59.94,65.07817922,59.93113115,65.85664076,-0.00229595,-0.040195395,-0.008868854,0.033314426
202,-5,0.7,1,0.71942446,-4300,-4460,-4838,-784,144,-2398,-467.6631826,-14298.66689,1656.202086,-2171.368359,1196.444444,4092.809326,59.94257813,65.02690871,59.90592036,65.88744018,0.002578125,-0.051270508,-0.025210786,0.030799412
202,-5,0.7,1,1.438848921,-3034,-11688,-3062,-264,752,-2969,-220,-14348,1350,-2234,1184,4352,59.990625,64.93659675,59.88371483,65.90712108,0.048046875,-0.090311958,-0.022205526,0.019680899
202,-5,0.7,1,2.158273381,-1302,-12256,1750,250,535,-3278,-600.797847,-13626.74074,988.8349515,-2226.222222,1190.021972,4641.387274,59.98285365,64.8499548,59.88,65.91,-0.007771346,-0.086641954,-0.003714834,0.002878925
202,-5,0.7,1,2.877697842,163.0220889,-10754.88889,1931.428828,2.148148148,183.9654604,-3341.154942,-1591.817916,-12287.25926,601.0841424,-2211.777778,1207.5995,4946.919805,59.94059841,64.76822133,59.88,65.91,-0.042255241,-0.081733467,0,0
202,-5,0.7,1,3.597122302,1428.148517,-7967.111111,2024.047747,-458.1481481,-208.239492,-3371.514084,-2966,-11566,420,-2204,1236,5213,59.94,64.66741706,59.82528801,65.93345725,-0.000598412,-0.100804277,-0.054711989,0.023457249
202,-5,0.7,1,4.316546763,1976,-6466,2050,-706,-394,-3435,-6101.640927,-12091,511.4530124,-2221.5,1394.385601,5462.955374,59.94,64.62,59.76105371,65.98425868,0,-0.047417057,-0.064234304,0.050801428
202,-5,0.7,1,5.035971223,1984.822668,-6850.56,1059.758463,-705.2377049,-58.5,-4063.505873,-9580,-12616,742,-2239,1608,5599,59.94,64.62,59.84031204,66.02794593,0,0,0.079258335,0.043687253
202,-5,0.7,1,5.755395683,1994,-7340,4,-703,277,-4641,-11288,-12166,1408,-2186,1730,5059,59.94,64.63309173,59.90527073,66.07199662,0,0.013091735,0.064958688,0.044050687
202,-5,0.7,1,6.474820144,2291.365894,-7480.560482,-98.75846295,-637.1130414,167.1360497,-4538.455645,-10248.2329,-10601.73972,1914.472811,-2143.226548,2264.839799,4032.585626,59.94,64.68664182,59.95296023,66.11615609,0,0.053550082,0.047689496,0.044159476
202,-5,0.7,1,7.194244604,2580,-7616,-136,-523,20,-4347,-8144,-8450,2260,-2079,2772,2770,59.94,64.71123127,59.98801449,66.16035847,0,0.024589457,0.035054258,0.044202377
202,-5,0.7,1,7.913669065,2372,-8025.879518,-133.7848723,-403.6889888,-51.13604972,-4110.495538,-4314.767098,-6902.815933,2452.685512,-1723.601615,2878.398319,1532.390355,59.94,64.72826206,60,66.2046455,0,0.017030784,0.011985515,0.044287029
202,-5,0.7,2,8.633093525,2164,-8336,-126,-301,-85,-3897,-1550,-4752,2540,-1133,2920,343,59.94,64.74709408,60,66.25848165,0,0.018832025,0,0.053836152
202,-5,0.7,2,9.352517986,2372,-7970,504,-251,-51,-3798,-2492,1682,-948,-460,2030,-652,59.94,64.78315131,60,66.27,0,0.036057226,0,0.011518349
202,-5,0.7,2,10.07194245,2874,-7982,848,-240,-92,-3424,-2246.845474,2591.519401,-2811.032066,-316.45346,1036.060046,-327.5,59.94,64.82938534,60,66.27,0,0.046234029,0,0
202,-5,0.7,2,10.79136691,3282,-7834,456,-234,-98,-3230,-1836,2892,-3650,-202,390,-3,59.94,64.79191533,59.97,66.235,0,-0.037470011,-0.03,-0.035
202,-5,0.7,2,11.51079137,3340,-7712,130,-162,-70,-2787,-1427.904342,2532.008931,-2909.182947,38.04466868,252.5373873,-337.0984794,59.94257813,64.76300781,59.94,66.2,0.002578125,-0.028907514,-0.03,-0.035
202,-5,0.7,2,12.23021583,3819.68949,-7745.319149,510.5819017,-95.20577452,-77.19610778,-2391.968079,-1017.174393,1672.462306,-1367.477006,361.6701084,166.6575825,-1115.196959,59.990625,64.8190625,59.94,66.2,0.048046875,0.056054687,0,0
202,-5,0.7,2,12.94964029,4252,-7820,968,-59,-89,-2031,-830,644,-46,702,137,-2001,60,64.80785156,59.94,66.2,0.009375,-0.011210937,0,0
202,-5,0.7,2,13.66906475,4172,-7964,1070,-59,-98,-1711,-894,-678,682,1049,270,-3002,60,64.76,59.94,66.2,0,-0.047851563,0,0
202,-5,0.7,2,14.38848921,3700,-8240,666,-62,-104,-1274,-1097.919212,-1097.029472,32.81481481,1372.35359,206.2406573,-3594.662378,60,64.79383006,59.94,66.22566667,0,0.03383006,0,0.025666667
202,-5,0.7,2,15.10791367,3474.854268,-8020,508.5241824,-32.03105906,-95,-1044.146122,-1382.181828,-1348.835837,-1172.814815,1685.202475,49.59242565,-4051.624265,60,64.83572892,59.94,66.27922557,0,0.041898858,0,0.053558908
202,-5,0.7,2,15.82733813,3236,-7800,444,9,-86,-847,-1526,-1614,-1822,2006,-148,-4546,60,64.8647727,59.94,66.32703448,0,0.029043787,0,0.047808908
202,-5,0.7,2,16.54676259,2642,-8274,756,26,-111,-596,-1502,-1962,-1624,2346,-441,-5165,60,64.88876133,59.94,66.40560055,0,0.023988622,0,0.07856607
202,-5,0.7,2,17.26618705,2291.182575,-8276.165609,907.6759621,8.5,-125.3729508,-436.2563,-1590,-2226.72468,-1306.471456,2658.938624,-713.7224812,-5427.882087,60,64.89989412,59.94,66.48894734,0,0.011132791,0,0.083346786
202,-5,0.7,2,17.98561151,2002,-8278,974,-9,-132,-332,-1678,-2530,-1100,2919,-918,-5649,60,64.81694336,59.97264401,66.45191533,0,-0.082950758,0.032644006,-0.037032012
202,-5,0.7,2,18.70503597,1699.178905,-8319.953488,952,-8,-110.9334532,-268.9438202,-1603,-3089.791442,-1147.52,3096.406391,-1032.179131,-5987.415067,59.99659271,64.76397517,60,66.42573987,-0.003407287,-0.052968191,0.027355994,-0.026175453
202,-5,0.7,2,19.42446043,1412,-8360,930,-7,-79,-240,-1528,-3810,-1244,3246,-1095,-6326,59.95665785,64.81056585,60,66.53870548,-0.039934867,0.046590678,0,0.112965601
202,-5,0.7,2,20.14388489,1150,-7852,1102,-23,-60,-256,-1666.680251,-4591.544514,-1388.299277,3401.845328,-1112.362651,-6595.836203,59.91398738,64.85630684,59.98608398,66.57,-0.042670466,0.045740997,-0.013916016,0.031294525
202,-5,0.7,2,20.86330935,1522,-7706,1154,-29,-43,-262,-1944,-5426,-1550,3532,-1126,-6811,59.88040301,64.89691732,59.94067383,66.57,-0.033584368,0.040610474,-0.045410156,0
202,-5,0.7,2,21.58273381,1088,-8462,1110,-48,-114,-206,-2322,-6256,-1670,3614,-1149,-6952,59.88,64.92720908,59.94,66.60346215,-0.000403012,0.03029176,-0.000673828,0.033462148
202,-5,0.7,2,22.30215827,1042.467126,-8348.964824,1022.115741,-74.23123909,-111.340604,-251.5587714,-2682,-7374,-1286,3767,-1172,-7084,59.88,64.95397654,59.94,66.65035598,0,0.026767464,0,0.046893828
202,-5,0.7,2,23.02158273,1028,-8136,898,-94,-104,-343,-2894,-7862,-946,3853,-1181,-7168,59.88,64.96902137,59.94,66.67839255,0,0.01504483,0,0.028036575
202,-5,0.7,2,23.74100719,1128,-7892,734,-99,-73,-469,-3138,-8296,-458,3874,-1152,-7321,59.88,64.97,59.94,66.70120363,0,0.000978629,0,0.022811081
202,-5,0.7,2,24.46043165,1170.272727,-7992,894.6956522,-86.5,-71.2812957,-524.9816964,-3176.259515,-8571.237392,-467.3891835,3870.866279,-1115.328532,-7422.411286,59.88,64.97,59.94,66.72498341,0,0,0,0.02377978
202,-5,0.7,2,25.17985612,1188,-8092,1070,-74,-70,-570,-3208,-8796,-496,3867,-1082,-7504,59.91785874,64.85245471,59.94,66.75592608,0.037858742,-0.117545288,0,0.030942671
202,-5,0.7,2,25.89928058,912,-8019.118644,1093.304348,-85.07619647,-64.42307692,-620.590289,-3302,-9006,-708,3866,-1062,-7574,59.94,64.74351314,59.94,66.80256111,0.022141258,-0.108941572,0,0.046635024
202,-5,0.7,2,26.61870504,636,-7920,1102,-107,-60,-685,-3270.617188,-9387.128311,-817.3161706,3866.5,-1009.841463,-7651.905227,59.94,64.70528371,59.94,66.90558284,0,-0.03822943,0,0.103021729
202,-5,0.7,2,27.3381295,876,-7880,1036,-136,-101,-807,-3224,-9872,-866,3867,-971,-7720,59.94,64.65790534,59.94,66.96989354,0,-0.047378374,0,0.064310699
202,-5,0.7,2,28.05755396,1189.297297,-8126,1029.908451,-163.8669381,-104.0460894,-933.2327972,-3204.187036,-10416.03291,-721.6198347,3847.809816,-989.0338002,-7772.920354,59.94,64.62,59.94,67.02,0,-0.037905336,0,0.050106465
202,-5,0.7,2,28.77697842,1380,-8372,1028,-186,-107,-1021,-3174,-10948,-546,3821,-1028,-7800,59.94,64.66785156,59.94,67.19113814,0,0.047851563,0,0.171138136
202,-5,0.7,2,29.49640288,1160,-8340,1106,-198,-137,-1046,-2856,-11354,-504,3809,-1095,-7768,59.94,64.68116598,59.93742188,67.33509328,0,0.013314418,-0.002578125,0.143955147
202,-5,0.7,2,30.21582734,1635,-9044,1368.735373,-369.1047836,-79,-1169.015575,-2820,-11482,-524,3775,-1133,-7712,59.94,64.62883402,59.889375,67.39320896,0,-0.052331962,-0.048046875,0.058115672
202,-5,0.7,2,30.9352518,2110,-9748,1576,-530,-21,-1328,-2498.160772,-11822.46696,-483.8038278,3723.884705,-1088,-7533.602539,59.94,64.62,59.88,67.4,0,-0.008834019,-0.009375,0.006791045
202,-5,0.7,2,31.65467626,1830,-8572,1178,-513.5170843,-81,-1436.298059,-2042,-12124,-400,3654,-1043,-7248,59.94,64.62,59.88,67.4,0,0,0,0
202,-5,0.7,2,32.37410072,1550,-7396,780,-476,-141,-1512,-1731.394413,-12205.20238,-233.6139354,3554.565165,-1079.05042,-6879.555143,59.90214126,64.62,59.88,67.42695922,-0.037858742,0,0,0.026959217
202,-5,0.7,2,33.09352518,1882,-7732,1192,-400,-138,-1545,-1472,-12238,-106,3420,-1163,-6408,59.88,64.62645996,59.87505394,67.49750348,-0.022141258,0.006459961,-0.004946061,0.070544264
202,-5,0.7,2,33.81294964,2184,-7282,1228,-475,-161,-1554,-1227.361522,-12114.20076,-98.58223684,3240.500978,-1370.237623,-5818.23519,59.88,64.68354004,59.8284022,67.64655938,0,0.057080078,-0.04665174,0.149055903
202,-5,0.7,2,34.5323741,2140,-8188,954,-556,-194,-1563,-1096,-11832,-96,3002,-1638,-5141,59.88,64.69,59.82,67.75924533,0,0.006459961,-0.008402198,0.112685944
202,-5,0.7,2,35.25179856,2203.692241,-8211.266423,954.4436009,-590.2728448,-204.3911983,-1601.867096,-1342.822742,-11031.79924,-197,2698.436296,-1891.711957,-4451.68506,59.88,64.69,59.82,67.84973214,0,0,0,0.09048681
202,-5,0.7,2,35.97122302,2330,-8218,956,-612,-211,-1634,-1834,-10390,-298,2255,-2037,-3673,59.85095176,64.69,59.82,67.96806481,-0.029048244,0,0,0.118332675
202,-5,0.7,2,36.69064748,2498,-7982,1070,-627,-217,-1634,-2494,-10710,168,1381,-1871,-2679,59.80725898,64.69645996,59.82,68.10208646,-0.043692775,0.006459961,0,0.13402165
202,-5,0.7,2,37.41007194,2665.170953,-7976.714106,739,-667.0265957,-243.3391747,-1618.381356,-2472,-11280,598,912,-1733,-1828,59.76387467,64.75354004,59.82,68.22153314,-0.043384312,0.057080078,0,0.119446678
202,-5,0.7,2,38.1294964,2758,-7972,408,-697,-267,-1596,-2587.378549,-11217.59047,480.4569562,471.4876112,-1532.227074,-788.3834694,59.76,64.76,59.82658254,68.31375059,-0.003874669,0.006459961,0.006582536,0.092217453
202,-5,0.7,2,38.84892086,2724.738255,-7702.545956,437.9381443,-670.5,-268.9724376,-1582.118644,-2822,-11022,292,97,-1251,184,59.76,64.76,59.85,68.40208342,0,0,0.023417464,0.088332821
202,-5,0.7,2,39.56834532,2646,-7438,504,-644,-271,-1575,-3158,-9224,158,-160,-778,844,59.76,64.76,59.87341746,68.46475297,0,0,0.023417464,0.062669558
202,-5,0.7,2,40.28776978,2427.183432,-7453.126547,628.6980896,-661,-312.9534884,-1588.533973,-3035,-7509.902125,-281.6009956,-308.2789618,-422.9261339,1285.564178,59.76,64.76,59.88,68.47275779,0,0,0.006582536,0.008004817
202,-5,0.7,2,41.00719424,2162,-7504,796,-678,-353,-1625,-2912,-6552,-788,-408,-163,1607,59.76,64.76,59.88,68.37431353,0,0,0,-0.098444259
202,-5,0.7,2,41.72661871,2008,-8574,964,-662,-335,-1763,-3346,-6526,-1054,-467,-16,1812,59.76,64.76,59.88,68.19006204,0,0,0,-0.184251487
202,-5,0.7,2,42.44604317,2397,-8380.243065,1015.971831,-666.1,-385.6857798,-1844.218969,-3398.884615,-6803,-771.8748336,-459,163.7026596,1996.136791,59.76,64.76,59.88,67.93,0,0,0,-0.260062045
202,-5,0.7,2,43.16546763,2786,-8122,1036,-678,-489,-1889,-3416,-7080,-302,-451,341,2132,59.76,64.76,59.88,67.77219917,0,0,0,-0.157800828
202,-5,0.7,2,43.88489209,2644,-8026,900,-743,-638,-1900,-3403.326938,-6987,166.8748336,-464.4098891,494.5259995,2211.918764,59.7515978,64.75019744,59.88,67.66151384,-0.008402198,-0.009802565,0,-0.110685336
202,-5,0.7,2,44.60431655,1909.135169,-8637,530.9039663,-829.1617744,-656.132622,-1922.229611,-3360,-6894,448,-502,614,2249,59.70494606,64.69577041,59.88,67.58297306,-0.04665174,-0.05442703,0,-0.078540773
202,-5,0.7,2,45.32374101,1188,-9248,110,-885,-662,-1968,-2092,-10782,-492,-673,681,2060,59.7,64.69,59.89386917,67.49067666,-0.004946061,-0.005770405,0.013869173,-0.092296402
202,-5,0.7,2,46.04316547,1066,-9090,-136,-889,-564,-2163,5892,-32768,-4334,-1368,605,340,59.7,64.69,59.94,67.4,0,0,0.046130827,-0.09067666
202,-5,0.7,2,46.76258993,1626,-8972,-164,-926,-588,-2272,1700,-2446,6386,588,-1564,1170,59.7,64.59429688,59.97800751,67.35008285,0,-0.095703125,0.038007508,-0.049917154
202,-5,0.7,2,47.48201439,1246,-8724,136,-953,-637,-2385,1745.311953,-2889.148688,5918.699708,560.9457577,-1560.624447,1543.978856,59.7,64.55980256,60.00755814,67.30616863,0,-0.03449431,0.029550636,-0.043914217
202,-5,0.7,2,48.20143885,1414.518519,-8869.08484,358.5917848,-981.4054403,-673.3229671,-2533.194282,1862.169096,-4032.005831,4713.556851,486.635519,-1550.040673,1856.251315,59.7,64.61422959,60.03246276,67.26076304,0,0.05442703,0.024904617,-0.045405593
202,-5,0.7,2,48.92086331,1727.481481,-9242.614125,542.8440406,-1013.560929,-704.4694636,-2711.543553,2021.953353,-5594.688047,3065.708455,375.3480158,-1531.563007,2113.045442,59.7,64.62,60.05205825,67.21569449,0,0.005770405,0.019595492,-0.045068543
202,-5,0.7,2,49.64028777,1896,-9752,646,-1060,-736,-2921,2196.046647,-7297.311953,1270.291545,237.3619802,-1504.505778,2320.589307,59.7,64.62078613,60.06,67.17,0,0.000786133,0.007941746,-0.045694493
202,-5,0.7,2,50.35971223,1506,-10702,678,-1160,-770,-3198,2355.830904,-8859.994169,-377.5568513,82.95614434,-1468.183315,2485.110976,59.7,64.67376465,60.06,67.12873513,0,0.052978516,0,-0.041264868
202,-5,0.7,3,51.07913669,786,-10698,768,-1174,-657,-3388,2472.688047,-10002.85131,-1582.699708,-77.59075975,-1421.909946,2612.838518,59.7,64.69,60.06,67.05896186,0,0.016235352,0,-0.069773276
202,-5,0.7,3,51.79856115,917.6590281,-10737.92593,994.9487368,-1140.037037,-750.494965,-3513.683405,2518,-10446,-2050,-234,-1365,2710,59.7,64.69,60.06,66.90103814,0,0,0,-0.157923711
202,-5,0.7,3,52.51798561,1195.095834,-10812.07407,1290.918813,-1076.962963,-935.5454855,-3616.044199,1072.888889,-10008.26672,-462.8148148,-430.243545,-763.5006853,2768.91334,59.7,64.71847168,60.06,66.82340987,0,0.02847168,0,-0.077628276
202,-5,0.7,3,53.23741007,1442,-10852,1438,-1043,-1069,-3727,-1610.888889,-9042.533444,2484.814815,-654.5443139,288.1385462,2809.85703,59.69940159,64.75930185,60.06,66.79,-0.000598412,0.040830173,0,-0.033409868
202,-5,0.7,3,53.95683453,1579.772632,-10838.96296,1337.259259,-1044.706637,-1126.25416,-3867.857778,-3056,-8070,4072,-813,848,2881,59.65714635,64.71000407,60.06,66.89253906,-0.042255241,-0.049297781,0,0.102539062
202,-5,0.7,3,54.67625899,1670.648815,-10806.37037,1085.407407,-1049.616795,-1176.983103,-4029.465985,-2332.666667,-7081.392482,2233.851852,-886.0407829,482.1851852,3314.058779,59.64,64.7009375,60.06,66.94,-0.017146346,-0.009066571,0,0.047460938
202,-5,0.7,3,55.39568345,1749.569095,-10764,758,-1057.415842,-1219.454493,-4198.054467,-989.3333333,-6085.807352,-1179.851852,-937.8155373,-197.1851852,4011.140501,59.64,64.75699219,60.06,66.94,0,0.056054687,0,0
202,-5,0.7,3,56.11510791,1851.474021,-10721.62963,430.5925926,-1067.789146,-1251.935996,-4359.853067,-266,-5632,-3018,-1000,-563,4376,59.64,64.69616935,60.08214126,66.92183313,0,-0.060822841,0.022141258,-0.018166871
202,-5,0.7,3,56.83453237,2011.30414,-10689.03704,178.7407407,-1080.422076,-1272.695277,-4501.09163,-819.2592593,-6184.222222,-1677.62963,-1115.532398,-374.2592593,4129.817514,59.64,64.62,60.12,66.87,0,-0.076169347,0.037858742,-0.051833129
202,-5,0.7,3,57.55395683,2264,-10676,78,-1095,-1280,-4608,-1846.740741,-7209.777778,811.6296296,-1248.432866,-23.74074074,3649.190583,59.64,64.62,60.12,66.82578597,0,0,0,-0.044214031
202,-5,0.7,3,58.27338129,5648.693895,-11468,210.7021277,-1133.861386,-1235,-4694.788305,-2400,-7762,2152,-1312,165,3321,59.630625,64.62,60.12,66.74994678,-0.009375,0,0,-0.075839185
202,-5,0.7,3,58.99280576,8878,-12260,456,-1165,-1190,-4739,-524,-6980,900,-1311,96,3237,59.58257813,64.62,60.12,66.6063535,-0.048046875,0,0,-0.14359328
202,-5,0.7,3,59.71223022,8352.8,-11932.9752,757.3705532,-1164.447026,-1328.32,-4537.411989,-787.1140285,-7072.302771,368.6050054,-1263.007182,92.43537678,3102.226006,59.58,64.64097293,60.12,66.49911598,-0.002578125,0.020972929,0,-0.107237521
202,-5,0.7,3,60.43165468,7100.4,-11047.2456,1150.361872,-1162.781078,-1658.16,-4023.715967,-1397.137409,-7299.640723,-41.07332854,-1146.34288,91.10703238,2925.283313,59.58,64.69625958,60.12,66.42,0,0.055286654,0,-0.079115983
202,-5,0.7,3,61.15107914,5605.6,-9745.828405,1543.867915,-1159.991617,-2051.84,-3334.513951,-2085.092086,-7587.658313,-304.7149982,-997.0071378,89.97517179,2728.948964,59.58,64.79751476,60.12,66.38028458,0,0.101255173,0,-0.039715423
202,-5,0.7,4,61.8705036,4353.2,-8171.740804,1846.782638,-1156.068104,-2381.68,-2606.407956,-2582,-7862,-398,-851,87,2536,59.58,64.83,60.12,66.30279781,0,0.032485243,0,-0.07748677
202,-5,0.7,4,62.58992806,3828,-6468,1968,-1151,-2520,-1976,-2874.478664,-8186.679639,-297.9820628,-692.8937421,59.35581023,2361.101947,59.58,64.83,60.12,66.10310061,0,0,0,-0.199697197
202,-5,0.7,4,63.30935252,4233.625,-3541.246559,1622.758352,-1119.287548,-2407.295506,-1348.548476,-3056,-8390,-70,-550,34,2154,59.58,64.88247674,60.12,65.94474918,0,0.052476735,0,-0.158351431
202,-5,0.7,4,64.02877698,5126,660.4475031,757.3556048,-1038.99404,-2104.87135,-664.9875344,-3116,-7940,394,-469,59,1828,59.58,64.97554432,60.12,65.81968898,0,0.093067582,0,-0.125060195
202,-5,0.7,4,64.74820144,6018.375,4431.917814,-372.7249446,-915.4535122,-1666.261518,-115.4328254,-3488,-8100,548,-400,105,1614,59.58,65.01985501,60.12,65.73762929,0,0.044310691,0,-0.082059698
202,-5,0.7,4,65.4676259,6424,6068,-1512,-754,-1145,110,-3335.02439,-7855,530,-330.0283262,85.5,1375.828796,59.58,65.05957188,60.12,65.6230267,0,0.039716872,0,-0.114602585
202,-5,0.7,4,66.18705036,3760.598558,2816.169244,-3057.677802,-297.2219218,-108.506369,10.5,-3096,-7610,512,-284,66,1197,59.58,65.0997952,60.12,65.45236368,0,0.040223318,0,-0.170663015
202,-5,0.7,4,66.90647482,814,-858,-4074,238,902,-89,-2928.987981,-7612.113705,512.7130373,-269.1207498,66.06987228,1111.09768,59.58,65.16520713,60.12,65.24421964,0,0.065411929,0,-0.208144044
202,-5,0.7,4,67.62589928,480.3267777,-1392.478004,-1820.933693,539.6366447,1349.692044,575.7897065,-2771.134557,-7618.951486,515.0231326,-255.9418957,66.26145755,1037.875581,59.58,65.25698373,60.12,65.11069815,0,0.091776608,0,-0.133521493
202,-5,0.7,4,68.34532374,184,-1820,1106,745,1551,1670,-2620.921,-7631.258344,519.186761,-244.4037405,66.54770849,975.5549961,59.58,65.35501491,60.12,65.15999593,0,0.098031177,0,0.049297781
202,-5,0.7,4,69.0647482,-708,-2660,2080,851,1479,2513,-2476.828576,-7649.77928,525.4603978,-234.446587,66.90157776,922.3572185,59.58,65.44440462,60.110625,65.15191393,0,0.089389713,-0.009375,-0.008081997
202,-5,0.7,4,69.78417266,578,-2406,1396,935,1367,3045,-2337.338557,-7675.259292,534.100518,-226.0107381,67.29601803,876.5035413,59.58,65.52753169,60.06257813,64.98867324,0,0.08312707,-0.048046875,-0.163240696
202,-5,0.7,4,70.50359712,1658,-2178,-228,1088,1246,3782,-2200.932211,-7708.443382,545.3635968,-219.0364966,67.70398197,836.2152576,59.55,65.57732785,60.06,64.93216124,-0.03,0.049796158,-0.002578125,-0.056511999
202,-5,0.7,4,71.22302158,1716.648019,-2168.207223,-974.8775911,1289.735162,1102.853061,4363.016484,-2066.090807,-7750.076549,559.5061094,-213.4641654,68.09842224,799.7136604,59.52,65.61887572,60.06,64.89565439,-0.03,0.041547866,0,-0.036506852
202,-5,0.7,4,71.94244604,1768,-2160,-1296,1506,961,4862,-1931.295614,-7800.903795,576.7845308,-209.2340473,68.45229151,765.220043,59.52,65.66309341,60.06,64.8443619,0,0.044217688,0,-0.051292489
202,-5,0.7,4,72.6618705,2086,-2116,-1084,1704,844,5288,-1795.027903,-7861.670118,597.4553363,-206.2864451,68.73854245,730.9556984,59.52,65.73412967,60.06,64.83,0,0.071036268,0,-0.014361897
202,-5,0.7,4,73.38129496,2036.043728,-2509.899092,-883.8122289,1946.816002,600.6858059,5782.389633,-1655.768942,-7933.12052,621.775001,-204.5616618,68.93012772,695.1419197,59.52,65.82588624,60.06,64.83,0,0.091756564,0,0
202,-5,0.7,4,74.10071942,1932,-3210,-736,2193,269,6311,-1512,-8016,650,-204,69,656,59.52,65.76,60.06,64.86191533,0,-0.065886239,0,0.031915327
202,-5,0.7,4,74.82014388,1727.329669,-3821.905557,-652.5960496,2431.777386,-163.8380614,6902.981185,-1364,-8450,800,-209,68,618,59.52176419,65.69721464,60.06059841,64.9,0.001764194,-0.062785357,0.000598412,0.038084673
202,-5,0.7,4,75.53956835,1460.553724,-4498.430914,-590.4091359,2656.987581,-649.5968917,7508.987194,-1110,-7916,546,-247,86,761,59.56110112,65.8496553,60.10285365,64.9,0.03933693,0.152440654,0.042255241,0
202,-5,0.7,4,76.25899281,1328,-5338,-566,2801,-976,7960,-1204.888889,-7866.602892,739.4074074,-279.7563242,97.97005134,845.1563335,59.59200465,65.93819914,60.12,64.921875,0.030903531,0.088543847,0.017146346,0.021875
202,-5,0.7,4,76.97841727,1354.84375,-6705.269908,-987,2857.990483,-1136.991604,8236.986332,-1381.111111,-7842.644537,1098.592593,-311.1474707,107.7884061,909.987444,59.61197089,65.98954565,60.12,65.03398438,0.019966231,0.051346506,0,0.112109375
202,-5,0.7,4,77.69784173,1392,-8070,-1408,2907,-1210,8423,-1476,-7822,1292,-350,119,983,59.62825229,66.03350775,60.12,65.04,0.016281401,0.043962101,0,0.006015625
202,-5,0.7,4,78.41726619,1412.574074,-8892.659815,-1339.594338,3003.773958,-1192.730959,8554.399202,-1460.888889,-7793.914857,1285.777778,-405.3387958,135.7198093,1075.812762,59.64289599,66.06930701,60.12067383,65.04,0.014643699,0.035799259,0.000673828,0
202,-5,0.7,4,79.13669065,1429.175926,-9551.662322,-1157.410898,3115.49809,-1141.461919,8656.755156,-1423.111111,-7764.34435,1270.222222,-476.6280478,157.3391337,1179.482393,59.65794911,66.09616499,60.16608398,65.04,0.015053124,0.026857979,0.045410156,0
202,-5,0.7,4,79.85611511,1436,-10180,-896,3169,-1057,8698,-1374,-7736.228045,1250,-558.3532751,180.3173941,1290.672411,59.67545879,66.11330325,60.18,65.02539589,0.017509678,0.017138262,0.013916016,-0.014604112
202,-5,0.7,4,80.57553957,1416,-10808,-320,3079,-724,8661,-1324.888889,-7712.505508,1229.777778,-644.9999968,201.1140113,1406.046339,59.69747215,66.11994336,60.18,64.97267861,0.022013359,0.006640108,0,-0.052717281
202,-5,0.7,4,81.29496403,1404.307692,-11590.28111,-388.9962513,3011.510203,-470.5396354,8543.684532,-1287.111111,-7696.116305,1214.222222,-731.053732,216.1884063,1522.267695,59.7320059,66.09215599,60.18,64.99069399,0.034533752,-0.027787364,0,0.018015384
202,-5,0.7,4,82.01438849,1395.487179,-12378.585,-558.4369471,2952.489797,-242.5952653,8330.600834,-1272,-7690,1208,-811,222,1636,59.76504624,66.04043909,60.18,65.04951916,0.033040339,-0.051716903,0,0.058825166
202,-5,0.7,4,82.73381295,1392,-12738,-772,2885,55,8062,-1938,-7950,1240,-885,208,1749,59.78816331,65.98193642,60.18,65.10133205,0.023117074,-0.058502668,0,0.051812895
202,-5,0.7,4,83.45323741,1424,-12530,-1088,2795,566,7659,-1882,-7726,862,-959,256,1808,59.80829488,65.91200949,60.16748219,65.09539589,0.020131566,-0.069926931,-0.01251781,-0.005936165
202,-5,0.7,4,84.17266187,1454.516197,-12141.34356,-1062.115315,2694.21128,1025.789288,7319.598654,-2146,-7296,950,-991,250,1855,59.8261746,65.83939367,60.12229595,65.04267861,0.017879725,-0.072615823,-0.045186241,-0.052717281
202,-5,0.7,4,84.89208633,1486.38173,-11646.42493,-992.2306306,2582.115357,1442.939502,7010.750645,-2210,-7544,652,-1039,286,1849,59.84253615,65.77282432,60.12,65.075,0.016361552,-0.066569344,-0.00229595,0.032321392
202,-5,0.7,4,85.61151079,1530,-11260,-890,2446,1726,6713,-2396,-7688,560,-1068,340,1941,59.8581132,65.72103683,60.1184368,65.11,0.015577046,-0.051787492,-0.0015632,0.035
202,-5,0.7,4,86.33093525,1637.240609,-10999.85181,-556.1497647,2257.574122,1887.740166,6429.791052,-2224,-7750,622,-1093,336,1936,59.87363941,65.69276656,60.08131081,65.11,0.015526208,-0.02827027,-0.037125992,0
202,-5,0.7,4,87.05035971,1718,-10870,-248,2028,1981,6142,-2360,-7774,534,-1140,390,2034,59.89006675,65.69036174,60.03868919,65.12460411,0.016427336,-0.002404819,-0.042621616,0.014604112
202,-5,0.7,4,87.76978417,1714.840708,-11120,-197.2205056,1766.180553,2023.142857,5826.800856,-2567.904646,-7847.356918,563.037037,-1162.447586,420.3035643,2088.257453,59.90825999,65.6925682,60.0015632,65.17732139,0.018193243,0.002206458,-0.037125992,0.052717281
202,-5,0.7,4,88.48920863,1706,-11370,-178,1493,2041,5474,-2795.174545,-7977.569712,616.962963,-1178.148796,443.3167138,2128.440832,59.92730162,65.69677058,60,65.18,0.01904163,0.00420238,-0.0015632,0.002678608
202,-5,0.7,4,89.20863309,1596.159292,-10967.2932,-273,1226.044451,2038.499031,5058.121882,-2902,-8138,646,-1197,474,2148,59.9461292,65.70295905,59.99999455,65.18008037,0.01882758,0.006188473,-5.45E-06,8.04E-05
202,-5,0.7,4,89.92805755,1492,-10300,-368,997,2032,4576,-2761.184,-8360.761386,507.472,-1222.399873,535.2338314,2153.294029,59.96368029,65.71112379,59.99980058,65.18284445,0.017551093,0.008164737,-0.000193966,0.002764077
202,-5,0.7,4,90.64748201,1580.389607,-9658.293571,-347.1080714,837.8858797,1986.316505,3996.498545,-2425.392,-8665.972668,177.136,-1251.449628,625.655248,2156.125667,59.97889246,65.72125496,59.99931886,65.18939632,0.01521217,0.010131171,-0.000481726,0.006551877
202,-5,0.7,4,91.36690647,1785.223659,-9020.924563,-304.4383649,707.1444186,1898.408204,3346.914277,-2024.608,-9009.003258,-217.136,-1284.599446,723.8597489,2158.110291,59.99070327,65.73334274,59.99853588,65.19953248,0.011810809,0.012087775,-0.000782977,0.010136154
202,-5,0.7,4,92.08633094,2016,-8732,-270,580,1818,2714,-1688.816,-9345.222565,-547.472,-1322.29951,808.4428332,2160.863276,59.99805028,65.74737729,59.99743816,65.21304939,0.007347012,0.01403455,-0.00109772,0.013516908
202,-5,0.7,4,92.8057554,2270,-8770,-254,450,1764,2135,-1548,-9630,-686,-1365,858,2166,60,65.7655422,59.99601221,65.22974352,0.001949718,0.018164908,-0.001425955,0.016694138
202,-5,0.7,4,93.52517986,2575.921967,-9128.030419,-229.5821193,316.9540489,1656.34312,1384.344658,-1559.703704,-9867.608729,-596.6866913,-1416.394828,877.6681173,2223.708219,60,65.82030383,59.99424452,65.24941137,0,0.054761635,-0.001767681,0.019667845
202,-5,0.7,4,94.24460432,2910.839771,-9728.792987,-192.3273505,181.3965203,1494.769882,560.8277232,-1588.962963,-10092.06397,-363.4863012,-1478.617986,889.6588097,2367.110232,60,65.8016023,59.99212163,65.2718494,0,-0.018701527,-0.002122899,0.022438029
202,-5,0.7,4,94.96402878,3236,-10046,-132,41,1299,-111,-1627,-10303.34823,-38.50813323,-1549.779778,898.1797106,2572.223227,60,65.69890204,59.98963002,65.29685409,0,-0.102700266,-0.002491608,0.025004688
202,-5,0.7,4,95.68345324,3470.669707,-8758.518519,294.4928323,-96.9618858,983.9544066,-522.7046039,-1665.037037,-10501.44399,326.1385088,-1627.990508,907.4384536,2815.064394,60,65.60635769,59.98675621,65.32422191,0,-0.092544348,-0.00287381,0.027367825
202,-5,0.7,4,96.4028777,3696.430324,-6367.481481,1007.690861,-240.3070021,600.8832337,-853.4317526,-1694.296296,-10686.33375,678.3443211,-1711.360481,921.6426722,3071.650922,60,65.50837997,59.98348671,65.35374935,0,-0.097977719,-0.003269502,0.029527438
202,-5,0.7,4,97.12230216,4118,-5080,1384,-414,374,-1310,-1706,-10858,966,-1798,945,3318,60,65.42481805,59.97980802,65.38523288,0,-0.083561918,-0.003678687,0.031483527
202,-5,0.7,4,97.84172662,6170,-11540,-882,-665,326,-2198,-1541.738657,-10995.50236,1242.502711,-1901.509227,1034.537801,3604.71666,60,65.37323647,59.97570666,65.41846897,0,-0.051581581,-0.004101363,0.033236094
202,-5,0.7,4,98.56115108,3636,-5470,1074,-585,-28,-2741,-1354,-11148,1400,-2005,1163,3869,60,65.33479792,59.97116913,65.45325411,0,-0.038438554,-0.00453753,0.034785136
202,-5,0.7,4,99.28057554,-1381.809252,-8332,2424.437996,-180.260274,-844.0317541,-2265.5,-1317.930674,-11472.08456,1394.319328,-2100.216711,1274.09492,4033.208363,60.01095417,65.27991979,59.96618194,65.48938476,0.01095417,-0.054878126,-0.00498719,0.036130656
202,-5,0.7,4,100,-4856,-11194,3086,163,-1433,-1790,-1296.603093,-11931.51961,1376.184874,-2195.803743,1387.067897,4163.519525,60.03676601,65.21388862,59.9607316,65.52665741,0.025811837,-0.066031173,-0.005450341,0.037272651
202,-5,0.7,1,0,-4478,-4200,-2444,-198,-1036,-2368,-1279.473965,-12342.19485,1343.957983,-2269.488904,1493.006925,4281.570925,60.05756908,65.14054548,59.95480461,65.56486854,0.020803072,-0.073343134,-0.005926983,0.038211124
202,-5,0.7,1,0.704225352,-4584,-2832,-4570,-792,-294,-2648,-1256,-12520,1296,-2299,1583,4409,60.06,65.05531471,59.94838749,65.60381461,0.002430921,-0.085230776,-0.006417117,0.038946072
202,-5,0.7,1,1.408450704,-3388,-10760,-3088,-232,552,-2946,-1211.459797,-11163,582.5703453,-2250.830986,1651.046568,4545.448946,60.06,64.97,59.94146675,65.64329211,0,-0.085314709,-0.006920743,0.039477498
202,-5,0.7,1,2.112676056,-1000,-9670,700,-31,620,-3249,-1182,-9806,-424,-2155,1715,4695,60.02502058,64.92680369,59.93402889,65.68309751,-0.034979424,-0.043196314,-0.007437861,0.0398054
202,-5,0.7,1,2.816901408,1857.988242,-9902,3157.172263,195.6472925,300.0128999,-3573.90199,-2192.445001,-10115.56561,-1097.662782,-2020.764198,1786.622525,4932.883652,60,64.89339214,59.92606042,65.72302729,-0.025020576,-0.033411544,-0.00796847,0.039929778
202,-5,0.7,1,3.521126761,3548,-10134,4336,327,-110,-3759,-4040,-10672,-1450,-1873,1868,5088,60,64.8637931,59.91754785,65.76287792,0,-0.029599045,-0.00851257,0.039850634
202,-5,0.7,1,4.225352113,2468,-8497,2854.393466,-132,-274.5128999,-3479.5,-6403.949627,-11348.77225,-1067.845412,-1741.957989,1955.553079,5010.875529,60,64.837649,59.90847769,65.80244588,0,-0.026144101,-0.009070163,0.039567965
202,-5,0.7,1,4.929577465,1388,-6860,202,-591,-349,-3200,-9040.197036,-12088.38612,-220.3574915,-1621.614246,2058.857454,4804.417725,60,64.81185239,59.89883644,65.84152766,0,-0.02579661,-0.009641247,0.039081773
202,-5,0.7,1,5.633802817,6630,-13218,-2418,-587,580,-4648,-10288,-12436,644,-1554,2210,4506,60,64.78329582,59.88861062,65.87991972,0,-0.02855657,-0.010225822,0.038392058
202,-5,0.7,1,6.338028169,1150,-6654,-1012,-429,262,-4536,-9145.592791,-11228.84988,1571.826089,-1537.898487,2669.939314,3750.682615,60,64.74644186,59.87573668,65.91805288,0,-0.036853952,-0.012873942,0.038133167
202,-5,0.7,1,7.042253521,2650,-7756,684,-291,-98,-4219,-7604,-8854,2138,-1521,3037,2749,60,64.69482192,59.8285496,65.96515519,0,-0.051619944,-0.04718708,0.047102309
202,-5,0.7,1,7.746478873,2840,-7654,1240,-342,-119,-3976,-7006.06101,-5186.275273,1482.286088,-1275.671207,2895.871269,1806.372932,60,64.69,59.82522915,65.99805615,0,-0.004821921,-0.003320446,0.032900961
202,-5,0.7,2,8.450704225,2944.697294,-7669.758688,1209.62963,-317.1851852,-116.7037037,-3699.292121,-6631.200525,-153.3002423,-41.40376569,-749.2895909,2540.656716,804.6648284,60,64.69,59.84863678,66.02604838,0,0,0.02340763,0.027992228
202,-5,0.7,2,9.154929577,3031.940983,-7711.583358,1133.703704,-255.1481481,-110.962963,-3402.192239,-6212.739778,4295.824909,-1767.891736,-169.7631792,2073.613806,9.124310662,59.9644043,64.72183838,59.87304616,66.04536942,-0.035595703,0.031838379,0.024409383,0.019321041
202,-5,0.7,2,9.85915493,3104.212083,-7771.296917,1035,-174.5,-103.5,-3090.106719,-5484,6212,-3032,235,1597,-315,59.94,64.77512451,59.87505394,66.05,-0.024404297,0.053286133,0.002007774,0.004630578
202,-5,0.7,2,10.56338028,3163.991609,-7840.722272,936.2962963,-93.85185185,-96.03703704,-2768.441928,-2307.806946,4727.578165,-3859.798117,403.2366045,1030.80351,-301.5,59.94,64.82553955,59.8284022,66.05,0,0.050415039,-0.04665174,0
202,-5,0.7,2,11.26760563,3213.760576,-7911.68233,860.3703704,-31.81481481,-90.2962963,-2442.604233,382,2570,-4282,590,487,-288,59.94,64.83,59.82,66.05,0,0.004460449,-0.008402198,0
202,-5,0.7,2,11.97183099,3256,-7976,830,-7,-88,-2118,-340,1456,-1882,1101,157,-964,59.94,64.83,59.82,66.05,0,0,0,0
202,-5,0.7,2,12.67605634,3295.919682,-8048.152312,869.6875,-10.90625,-94.71875,-1775.325765,-560,434,-342,1303,73,-1604,59.94,64.83,59.82,66.05,0,0,0,0
202,-5,0.7,2,13.38028169,3332.650829,-8131.135389,957,-19.5,-109.5,-1415.054088,-745.6768879,-836.1671615,252.8734101,1534.411199,104.5,-2448.84956,59.94,64.83,59.82,66.05,0,0,0,0
202,-5,0.7,2,14.08450704,3359.556561,-8199.550771,1044.3125,-28.09375,-124.28125,-1072.255367,-942,-1740,496,1802,136,-3249,59.94,64.83,59.82,66.05,0,0,0,0
202,-5,0.7,2,14.78873239,3370,-8228,1084,-32,-131,-782,-1268.718699,-1964.158806,-25.11111111,2153.866253,62.84964595,-3818.635472,59.94,64.83,59.82,66.05,0,0,0,0
202,-5,0.7,2,15.49295775,2963.340722,-8148.48855,887.6837748,-25.7,-130.1315789,-542.4202314,-1637.625114,-2093.716951,-992.8888889,2554.381132,-93.63404143,-4297.63506,59.94,64.83,59.82,66.05,0,0,0,0
202,-5,0.7,2,16.1971831,2316,-8042,634,-14,-128,-360,-1814,-2266,-1514,2900,-239,-4703,59.94,64.78214844,59.81759701,66.06201496,0,-0.047851563,-0.002402993,0.012014964
202,-5,0.7,2,16.90140845,1854.384766,-8007.04009,528.3162252,-1.918644068,-122.9109742,-223.0063796,-1815.467343,-2565.427586,-1305,3159.303419,-353.8341759,-5043.509606,59.94,64.76679955,59.8112275,66.09386249,0,-0.01534889,-0.006369505,0.031847524
202,-5,0.7,2,17.6056338,1430,-7966,480,13,-112,-155,-1816,-2970,-1096,3374,-433,-5327,59.94,64.8157403,59.8021507,66.13924652,0,0.048940748,-0.009076807,0.045384033
202,-5,0.7,2,18.30985915,1048,-7804,684,33,-75,-172,-1692.074074,-3499.922252,-1122.738994,3559.238116,-459.7155697,-5568.690813,59.94,64.86435609,59.7916258,66.19187101,0,0.048615798,-0.010524898,0.052624491
202,-5,0.7,2,19.01408451,1037.150672,-7893,1107.165138,6.92578125,-64.13409704,-211.4785991,-1461.925926,-4169.148718,-1191.255766,3722.403581,-476.2177818,-5782.708555,59.94,64.91985537,59.78091202,66.24543991,0,0.055499272,-0.01071378,0.053568899
202,-5,0.7,2,19.71830986,1034,-7982,1404,-42,-60,-263,-1338,-4946,-1284,3858,-498,-5983,59.94,64.96152283,59.77126857,66.29365717,0,0.041667463,-0.009643451,0.048217256
202,-5,0.7,2,20.42253521,1142,-7977,1396.56872,-111.9257813,-64.65384615,-324.9109948,-1385.60013,-5877.147238,-1509.751965,3964.217163,-535.5733706,-6172.997336,59.9315978,64.97,59.76395465,66.33022673,-0.008402198,0.008477172,-0.007313912,0.036569562
202,-5,0.7,2,21.12676056,1250,-7972,1376,-159,-76,-363,-1476,-7034,-1686,4054,-585,-6349,59.88494606,64.97,59.76022949,66.34885254,-0.04665174,0,-0.003725163,0.018625817
202,-5,0.7,2,21.83098592,756,-8342,1288,-156,-105,-324,-1582,-8574,-1482,4134,-650,-6510,59.88,64.96644139,59.78016461,66.35,-0.004946061,-0.003558614,0.019935118,0.001147455
202,-5,0.7,2,22.53521127,695.9640382,-8333.754272,1011.211125,-176,-104.076087,-360.8947964,-1752,-9276,-1104,4204,-709,-6591,59.88,64.9503035,59.81946502,66.35,0,-0.016137888,0.039300412,0
202,-5,0.7,2,23.23943662,638,-8306,796,-196,-101,-434,-1816.819246,-9567.653984,-826.6802508,4220.866667,-826.9270376,-6692.449926,59.88,64.92357495,59.7844043,66.41896218,0,-0.026728544,-0.035060724,0.06896218
202,-5,0.7,2,23.94366197,254,-7714,802,-182,-46,-531,-1874,-9766,-688,4227,-957,-6796,59.88,64.88261478,59.76553711,66.50753122,0,-0.040960178,-0.018867187,0.088569035
202,-5,0.7,2,24.64788732,268.8906634,-7853,774,-191.46875,-39.65384615,-630.1239904,-1992.791152,-9921.147837,-820,4155.724848,-1054.062031,-6905.381963,59.88,64.78282697,59.81446289,66.55488905,0,-0.099787809,0.048925781,0.047357839
202,-5,0.7,2,25.35211268,316,-7992,746,-206,-35,-737,-2102,-10096,-952,4044,-1128,-6968,59.9044043,64.7284218,59.81680128,66.60821369,0.024404297,-0.054405164,0.002338389,0.053324639
202,-5,0.7,2,26.05633803,786,-7656,820,-215,-24,-864,-2140.55749,-10442.44822,-952,3969.047526,-1165.774952,-6964,59.93940159,64.68355752,59.80390848,66.66494858,0.034997291,-0.044864285,-0.0128928,0.056734887
202,-5,0.7,2,26.76056338,887.7302855,-7830.740741,941.6973177,-227.841801,-36.4640241,-943.2591568,-2184,-10932,-952,3899,-1209,-6960,59.89714635,64.58220232,59.78640768,66.72420045,-0.042255241,-0.101355196,-0.0175008,0.059251871
202,-5,0.7,2,27.46478873,941.7785627,-8155.259259,1078.942853,-244.7361515,-61.81693708,-1006.019858,-2346,-11586,-496,3829,-1341,-6965,59.88,64.55,59.77005888,66.78596348,-0.017146346,-0.032202323,-0.0163488,0.061763026
202,-5,0.7,2,28.16901408,1008,-8330,1146,-267,-82,-1075,-2113.783929,-11866.09346,-325.2079208,3781.613188,-1455.562117,-6963.33284,59.88,64.55,59.76062208,66.85023183,0,0,-0.0094368,0.064268351
202,-5,0.7,2,28.87323944,1120,-8312,1148,-305,-91,-1163,-1760,-11984,-256,3735,-1557,-6958,59.88,64.52416853,59.76,66.9193562,0,-0.025831468,-0.00062208,0.069124376
202,-5,0.7,2,29.57746479,1174.213238,-7981.237176,1126.359551,-393.9154451,-99.3384755,-1219.013773,-1546,-11662,-372,3669,-1642,-6899,59.88,64.48,59.76,66.99713078,0,-0.044168532,0,0.07777458
202,-5,0.7,2,30.28169014,1236,-7544,1076,-468,-107,-1267,-1370.533076,-11462.35467,-601.3096234,3611.694353,-1748.065934,-6769.372437,59.88,64.48,59.76,67.07778808,0,0,0,0.080657295
202,-5,0.7,2,30.98591549,1481.612048,-7303.955595,926.2451006,-479.4106001,-112.5912962,-1317.345009,-1156,-11368,-760,3541,-1870,-6565,59.88,64.48267861,59.76,67.15503344,0,0.002678608,0,0.077245358
202,-5,0.7,2,31.69014085,1742,-7186,792,-491,-120,-1368,-712,-11492,-566,3400,-2011,-6227,59.88,64.50583147,59.76,67.2225722,0,0.02315286,0,0.067538769
202,-5,0.7,2,32.3943662,1830,-8224,776,-546,-143,-1421,-634.4328059,-11500.35826,-249.1648938,3237.612869,-2258.156029,-5834.036316,59.88,64.53539589,59.76,67.2723052,0,0.029564421,0,0.049732997
202,-5,0.7,2,33.09859155,1983.548387,-8209.442396,709.0487805,-596.6529699,-158.032819,-1467.255151,-590.1052918,-11504.73469,123.5198541,3052.764972,-2542.800237,-5403.779828,59.88,64.55,59.76,67.32,0,0.014604112,0,0.047694798
202,-5,0.7,2,33.8028169,2086,-8172,654,-633,-173,-1500,-576,-11506,378,2823,-2679,-4950,59.83898438,64.55,59.76,67.40547009,-0.041015625,0,0,0.085470093
202,-5,0.7,2,34.50704225,1975.568995,-7969.557604,679,-646.9782389,-200.7716346,-1512.624308,-1081.839472,-11179.21113,489.5542267,2505.157358,-2618.219124,-4499.676348,59.82,64.55,59.7515978,67.51980332,-0.018984375,0,-0.008402198,0.11433323
202,-5,0.7,2,35.21126761,1802,-7790,704,-660,-221,-1525,-1724,-10794,562,2074,-2469,-3956,59.82,64.55,59.70494606,67.66249748,0,0,-0.04665174,0.142694157
202,-5,0.7,2,35.91549296,1686,-8300,644,-687,-223,-1555,-1916,-10718,608,1435,-2078,-3101,59.82,64.55,59.7,67.78077947,0,0,-0.004946061,0.118281987
202,-5,0.7,2,36.61971831,1386,-7538,882,-714,-191,-1618,-2216.276948,-10727,479.0776173,917.6830448,-1810.422258,-1933.92156,59.81932617,64.55078613,59.70040567,67.86566267,-0.000673828,0.000786133,0.000405674,0.084883207
202,-5,0.7,2,37.32394366,1620,-8008,1092,-752,-210,-1641,-2504,-10736,264,506,-1571,-855,59.77391602,64.60376465,59.73339295,67.91587175,-0.045410156,0.052978516,0.03298728,0.050209071
202,-5,0.7,2,38.02816901,1978,-7616,864,-779,-206,-1695,-2662.421503,-10224.77126,119.4967542,191.4859212,-1301.594807,-154.6631824,59.76,64.62,59.76691079,67.92930587,-0.013916016,0.016235352,0.033517832,0.013434121
202,-5,0.7,2,38.73239437,2416,-7404,682,-811,-209,-1738,-2785.357525,-9082.431414,-25.24395653,-69.26851781,-1028.016207,411.1413707,59.76,64.62,59.78502877,67.91747659,0,0,0.018117985,-0.011829279
202,-5,0.7,2,39.43661972,2352,-7533.518318,540.2948908,-820.2315426,-226.0930964,-1755.976178,-2950,-7896,-254,-261,-776,880,59.76,64.64847168,59.80116151,67.89239865,0,0.02847168,0.016132739,-0.025077937
202,-5,0.7,2,40.14084507,2288,-7744,392,-830,-259,-1777,-3252,-6830,-878,-379,-562,1247,59.76,64.69,59.8228377,67.85471945,0,0.04152832,0.021676189,-0.0376792
202,-5,0.7,2,40.84507042,2392,-7900,178,-872,-317,-1862,-3396,-6554,-1058,-444,-413,1371,59.76,64.69,59.86631755,67.7180441,0,0,0.043479851,-0.136675355
202,-5,0.7,2,41.54929577,2391.379633,-8169.24251,246.224,-868.984,-357.8466435,-1917.657324,-3345.466608,-6383.414115,-799.4193548,-438.5,-267.9717788,1563.211457,59.74748219,64.67967026,59.88,67.58715638,-0.01251781,-0.010329737,0.01368245,-0.130887716
202,-5,0.7,2,42.25352113,2389.3389,-8537.537824,408.912,-861.792,-389.6982765,-1965.527456,-3222,-6264,-390,-433,-126,1731,59.70229595,64.62909017,59.88,67.49397887,-0.045186241,-0.050580094,0,-0.093177509
202,-5,0.7,2,42.95774648,2385.60835,-8913.611883,603.088,-853.208,-419.8265878,-2005.868925,-2904,-6190,-110,-461,12,1800,59.7,64.58705882,59.88332362,67.41387584,-0.00229595,-0.042031345,0.003323615,-0.080103028
202,-5,0.7,2,43.66197183,2379.918533,-9206.190628,765.776,-846.016,-455.503266,-2038.940264,-2856.945991,-6160.280549,-161.4075516,-485.325613,94.06046679,1797.980535,59.7,64.54565439,59.8966548,67.33103102,0,-0.041404437,0.01333118,-0.082844819
202,-5,0.7,2,44.36619718,2372,-9324,834,-843,-504,-2065,-2808,-6148,-308,-523,157,1792,59.7,64.4943619,59.9145759,67.25531086,0,-0.051292489,0.017921104,-0.075720164
202,-5,0.7,2,45.07042254,2245.564376,-9148,626.6334661,-919.72851,-613.8326645,-2078.932896,558.6602772,-18736,-2825.592448,-823.9889937,223.5554435,1549.261794,59.7,64.48,59.93096703,67.1981185,0,-0.014361897,0.01639113,-0.05719236
202,-5,0.7,2,45.77464789,1910,-8972,250,-1031,-695,-2099,3878,-31324,-5248,-1097,260,978,59.7,64.48,59.93970828,67.17085709,0,0,0.008741256,-0.027261408
202,-5,0.7,2,46.47887324,574,-9278,-138,-1088,-646,-2321,-2112,-26222,-808,-1083,-1682,-371,59.67,64.48,59.94,67.17,-0.03,0,0.000291715,-0.00085709
202,-5,0.7,2,47.18309859,346,-9194,-312,-1127,-602,-2490,-1358.127273,-15934.02547,4106.060345,-215.4481298,-709.7972561,214,59.64,64.47732139,59.94,67.17,-0.03,-0.002678608,0,0
202,-5,0.7,2,47.88732394,359.2914798,-9418.061047,189,-1176.931899,-652.9259259,-2762.981494,336,-7334,6936,757,608,799,59.64,64.42460411,59.94,67.17,0,-0.052717281,0,0
202,-5,0.7,2,48.5915493,394,-9920,690,-1241,-734,-3075,4862.127273,-4765.904825,4220.808856,950.1723566,1275.797256,300,59.64,64.42460411,59.9484022,67.15879707,0,1.42E-14,0.008402198,-0.011202931
202,-5,0.7,2,49.29577465,603.7085202,-11077.47809,627,-1363.409938,-804.5740741,-3354.348453,8448,-3716,816,1026,1598,-199,59.64,64.47732139,59.99505394,67.09659475,0,0.052717281,0.04665174,-0.06220232
202,-5,0.7,3,50,792,-12290,564,-1449,-845,-3635,7333.138748,-5366.444444,-456.0305592,776.9106754,956.0740741,544.5654273,59.64,64.44808467,60,67.09,0,-0.029236719,0.004946061,-0.006594749
202,-5,0.7,3,50.70422535,287,-12919.46086,795,-1396.513986,-799,-3986.7552,4811.610829,-8431.555556,-1373.459724,276.2657952,-236.0740741,1995.908632,59.64,64.41157227,60,67.08584473,0,-0.036512408,0,-0.004155273
202,-5,0.7,3,51.4084507,-218,-13216,1026,-1313,-753,-4231,2118,-10082,-1726,-106,-878,2986,59.64,64.5175293,60,66.80581543,0,0.105957031,0,-0.280029297
202,-5,0.7,3,52.11267606,2340,-13034,806,-1255,-992,-4277,-881.481911,-9886.12787,2124,-237.6792906,-377.1023359,3313.947228,59.64,64.55,60.01131687,66.72,0,0.032470703,0.011316872,-0.08581543
202,-5,0.7,3,52.81690141,1159,-12710.98425,679.4453481,-1323.5,-973.5,-4432.147962,-3186,-9370,5974,-389,344,3457,59.64,64.55,60.05555556,66.72,0,0,0.044238683,0
202,-5,0.7,3,53.52112676,-22,-12262,524,-1392,-955,-4585,-3836,-7594,4292,-922,704,3267,59.64,64.55,60.06,66.71400743,0,0,0.004444444,-0.005992574
202,-5,0.7,3,54.22535211,904.5383387,-11621.53256,-220.4800484,-1347.990132,-971.2752101,-4625.67823,-430,-8308,-418,-1323,715,3092,59.64,64.55078613,60.06,66.68976238,0,0.000786133,0,-0.024245049
202,-5,0.7,3,54.92957746,1840,-10922,-848,-1256,-1016,-4663,-1077.252075,-8117.703704,-219.1252127,-1180.148148,538.4444444,3329.740741,59.64,64.60376465,60.06,66.65660654,0,0.052978516,0,-0.033155841
202,-5,0.7,3,55.63380282,1850,-10356,-372,-1113,-1201,-4747,-2375.170816,-7764.296296,286.4162412,-914.8518519,210.5555556,3771.259259,59.64,64.62,60.06,66.62327544,0,0.016235352,0,-0.033331099
202,-5,0.7,3,56.33802817,2947.073656,-10337.42427,-612,-1032.104671,-1241.197713,-4866.877049,-3358,-7574,962,-772,34,4009,59.64,64.62,60.06,66.58075922,0,0,0,-0.04251622
202,-5,0.7,3,57.04225352,4962,-10332,-852,-995,-1278,-4942,-3732,-8110,2146,-926,128,3492,59.64,64.62,60.06,66.50660604,0,0,0,-0.074153181
202,-5,0.7,3,57.74647887,7717.403326,-11497,103.2794228,-1036.268433,-1400.808758,-4777.745816,-2494,-7896,1616,-1056,158,3267,59.64,64.62,60.06059841,66.4112844,0,0,0.000598412,-0.09532164
202,-5,0.7,3,58.45070423,9546,-12662,1538,-1108,-1595,-4428,-2124,-8090,374,-946,26,3127,59.64,64.62,60.10285365,66.3278383,0,0,0.042255241,-0.083446099
202,-5,0.7,3,59.15492958,7836,-11132,2366,-1173,-1862,-3853,-2144.816976,-7839,-47.61463187,-799.7018763,24.78368583,2969.674579,59.64,64.62236932,60.12,66.22311384,0,0.002369324,0.017146346,-0.104724458
202,-5,0.7,4,59.85915493,5962.724328,-9041.009327,2351,-1144.539759,-2182.206748,-3168.66951,-2196,-7588,-214,-656,24,2795,59.64,64.63636753,60.12,66.08104109,0,0.013998205,0,-0.142072747
202,-5,0.7,4,60.56338028,4654,-6752,2318,-1080,-2533,-2406,-2411.995338,-7952.518519,-146.7196653,-535.2138607,21.57912458,2603.946119,59.64,64.66195037,60.12,65.8975466,0,0.025582838,0,-0.183494489
202,-5,0.7,4,61.26760563,4318.488836,-4785.322959,2271.939877,-934.3311501,-2998.204881,-1340.150832,-2775.947056,-8629.481481,16.56066946,-428.223092,18.51178451,2394.118772,59.64,64.70361745,60.12,65.73785146,0,0.041667085,0,-0.15969514
202,-5,0.7,4,61.97183099,4024,-2480,2174,-758,-3286,-669,-3044,-8994,218,-364,17,2155,59.64,64.85593354,60.12,65.65457687,0,0.152316085,0,-0.083274594
202,-5,0.7,4,62.67605634,3353.750625,2465.988701,404.56353,-610.6290909,-2394.397484,-702,-3150.376265,-8684.962963,567.2171083,-340.0351339,25.2962963,1838.717073,59.64,64.93583517,60.12,65.55079992,0,0.079901628,0,-0.103776951
202,-5,0.7,4,63.38028169,2522,5992,-2572,-530,-1187,-735,-3225.540192,-8111.037037,1004.941887,-324.8581467,40.7037037,1477.947794,59.64,64.96965075,60.12,65.42128638,0,0.033815581,0,-0.129513536
202,-5,0.7,4,64.08450704,1742,46,-5292,-554,-708,-702,-3320,-7802,1220,-304,49,1183,59.64,64.97,60.09264401,65.32638183,0,0.000349253,-0.027355994,-0.094904553
202,-5,0.7,4,64.78873239,1101.445813,-816.9307923,-3019.965775,-50.75774083,-146.7978822,-124.286771,-3476,-8414,1020,-263,41,998,59.64,64.97417452,60.06,65.25364628,0,0.004174516,-0.032644006,-0.072735548
202,-5,0.7,4,65.49295775,280,-1420,322,574,311,879,-2736,-8224,1056,-284,51,655,59.64,65.06659938,60.06,65.19188712,0,0.092424863,0,-0.061759159
202,-5,0.7,4,66.1971831,-1666,-2546,2120,741,522,1911,-2231.431036,-8052.769008,1030.939746,-281.4085863,56.13500597,517.9910448,59.62608398,65.1332895,60.06,65.18,-0.013916016,0.066690116,0,-0.011887123
202,-5,0.7,4,66.90140845,-798,-2758,1896,818,675,2345,-1829.826629,-7901.273393,963.6572692,-273.9282837,59.86499403,426.2955224,59.58067383,65.17430418,60.06,65.18,-0.045410156,0.041014686,0,0
202,-5,0.7,4,67.6056338,1052,-2402,-34,941,1069,3002,-1666,-7836,866,-262,65,385,59.58,65.24969536,60.06,65.11,-0.000673828,0.075391183,0,-0.07
202,-5,0.7,4,68.30985915,1408,-1956,-1020,1088,1357,3445,-1776,-8374,642,-222,75,376,59.58,65.38966712,60.06,65.04053748,0,0.139971752,0,-0.069462523
202,-5,0.7,4,69.01408451,1431.562834,-2036.236573,-920.9902567,1312.565076,1504.805813,3919.671345,-1541.478261,-8025,541.1082803,-170.890411,62,455,59.58,65.69228828,60.06,65.08373554,0,0.302621166,0,0.04319806
202,-5,0.7,4,69.71830986,1446.278075,-2253.630861,-694.1406844,1594.82207,1624.521834,4413.332556,-1080,-7676,498,-140,49,534,59.58,65.72520996,60.06,65.13517671,0,0.032921678,0,0.051441172
202,-5,0.7,4,70.42253521,1453.854278,-2573.209718,-444.72077,1878.41803,1704.726938,4919.577489,-480,-8024,620,-172,73,526,59.58,65.61168457,60.06,65.17820244,0,-0.113525391,0,0.043025733
202,-5,0.7,4,71.12676056,1456,-2960,-278,2107,1734,5432,-926,-7728,1042,-147,19,649,59.58,65.69161001,60.069375,65.18,0,0.079925444,0.009375,0.001797558
202,-5,0.7,4,71.83098592,1397,-3762.928995,-191.4296578,2269.394575,1441.400955,5966.716353,-857,-7841.778002,1359.713319,-186.2697817,42.90069686,685.3324125,59.58,65.75699219,60.0955957,65.18,0,0.065382173,0.026220703,0
202,-5,0.7,4,72.53521127,1338,-4604,-150,2404,1005,6487,-788,-8084,1520,-244,70,701,59.58,65.7009375,60.11742188,65.18,0,-0.056054688,0.021826172,0
202,-5,0.7,4,73.23943662,1754,-4949.649891,-611.1506024,2516.161594,758.7319562,6957.020368,-1104,-8482,1342,-275,74,704,59.58,65.69,60.12,65.20074074,0,-0.0109375,0.002578125,0.020740741
202,-5,0.7,4,73.94366197,2170,-5292,-1098,2625,530,7383,-1332.832503,-8557.726854,925.6487834,-297.5615718,87.42105263,780.3033001,59.58,65.69,60.12,65.25725652,0,0,0,0.056515775
202,-5,0.7,4,74.64788732,2064,-5988,-1128,2754,264,7746,-1482,-8584,624,-314,98,901,59.61264401,65.81367476,60.12,65.26,0.032644006,0.123674763,0,0.002743484
202,-5,0.7,4,75.35211268,2246,-6813.591636,-1270.409677,2826.358529,36.38508662,7971.791431,-1557,-8352,782.9902755,-321.7261436,90.5,1000.050303,59.64,66.01274379,60.12257813,65.26,0.027355994,0.199069027,0.002578125,0
202,-5,0.7,4,76.05633803,2428,-7726,-1390,2866,-179,8151,-1590,-8120,1080,-332,83,1081,59.64,66.17703267,60.170625,65.26,0,0.164288883,0.048046875,0
202,-5,0.7,4,76.76056338,2388.247191,-8727.98487,-1104.879864,2879.561069,-412.7430047,8319.475417,-1032,-8202,1412,-401,112,1126,59.64,66.18334916,60.18,65.27154081,0,0.006316491,0.009375,0.01154081
202,-5,0.7,4,77.46478873,2306,-9760,-642,2885,-615,8460,-1110.629652,-8532.278993,1354,-472.8278689,120.0008711,1210.832365,59.64,66.12481305,60.18,65.32383065,0,-0.058536115,0,0.052289843
202,-5,0.7,4,78.16901408,2182,-10742,-300,2825,-743,8561,-1234,-8802,1296,-539,123,1327,59.6755957,66.07066332,60.18,65.45656422,0.035595703,-0.054149729,0,0.132733564
202,-5,0.7,4,78.87323944,2066,-12248,-386,2730,-751,8536,-1316,-7868,1388,-590,117,1475,59.7,66.05,60.17770405,65.53582548,0.024404297,-0.020663319,-0.00229595,0.079261267
202,-5,0.7,4,79.57746479,1769.261448,-12343.16814,-688.5883067,2646.557182,-573.552381,8433.03341,-1396.111708,-7929,1528.243902,-672.4861325,147.5,1533.47638,59.7,66.05,60.13251781,65.44340062,0,0,-0.045186241,-0.092424863
202,-5,0.7,4,80.28169014,1334,-12372,-1128,2564,-207,8261,-1538,-7990,1618,-768,178,1586,59.71216212,66.00540555,60.12,65.3767105,0.012162122,-0.044594447,-0.01251781,-0.066690116
202,-5,0.7,4,80.98591549,686.4960969,-11842,-1673.057669,2467.00799,376.1813542,8019.64242,-2436,-7504,1468,-857,166,1684,59.75617946,65.84400864,60.12,65.33569582,0.044017341,-0.161396916,0,-0.041014686
202,-5,0.7,4,81.69014085,208,-11312,-2016,2379,1034,7761,-2550,-8012,916,-960,228,1651,59.80186183,65.67650664,60.12,65.24300893,0.045682363,-0.167501998,0,-0.09268689
202,-5,0.7,4,82.3943662,144,-11402,-1680,2321,1505,7572,-2512.976,-7986.416,638.126864,-975.1598747,241.3421524,1641.436763,59.82,65.61,60.12,65.16326829,0.018138174,-0.066506639,0,-0.079740636
202,-5,0.7,4,83.09859155,0,-11444,-1126,2194,2094,7392,-2424.688,-7925.408,418.180592,-985.9848591,249.8827785,1634.131359,59.82,65.61,60.12,65.11764358,0,0,0,-0.045624711
202,-5,0.7,4,83.8028169,31.09922702,-11254.08946,-957.2658151,2084.280061,2560.205617,7189.836248,-2319.312,-7852.592,245.170888,-993.029906,255.5523285,1629.007573,59.82,65.65092433,60.11257033,65.11928709,0,0.040924332,-0.007429669,0.001643505
202,-5,0.7,4,84.50704225,108,-10818,-822,1957,2858,6964,-2231.024,-7791.584,108.107456,-996.8499687,260.2812524,1625.989191,59.82,65.75357573,60.06815928,65.1748009,0,0.102651396,-0.044411053,0.055513816
202,-5,0.7,4,85.21126761,425.6082441,-9489.544669,-538.9372366,1705.570081,2980.820536,6729.764382,-2194,-7766,-4,-998,266,1625,59.82,65.79844046,60.01773771,65.23782787,0,0.044864735,-0.050421571,0.063026964
202,-5,0.7,4,85.91549296,981.2588714,-7538.216779,-209.9130628,1388.715657,3064.847614,6468.431634,-2309.111111,-7802.814815,-108.5005482,-980.6415771,271.7740793,1645.006759,59.82494606,65.85422634,60,65.26,0.004946061,0.055785881,-0.017737708,0.022172135
202,-5,0.7,4,86.61971831,1454,-6538,-52,1188,3097,6119,-2522.888889,-7871.185185,-194.3613852,-943.9498208,277.1989522,1686.124628,59.8715978,65.9631903,60,65.26,0.04665174,0.108963956,0,0
202,-5,0.7,4,87.32394366,1714.16405,-8435.430353,-70,1135.876744,3098.463658,5495.488276,-2638,-7908,-230,-911,285,1720,59.88,65.98,59.98285365,65.2371382,0.008402198,0.0168097,-0.017146346,-0.022861795
202,-5,0.7,4,88.02816901,1976,-10740,-88,1085,3099,4715,-2621.096296,-7784,49.47505423,-885.1532258,302.9857626,1734.841756,59.88,65.98,59.94059841,65.18079788,0,0,-0.042255241,-0.056340322
202,-5,0.7,4,88.73239437,2497.911555,-11448.56965,782,936.4609406,2827.373961,3989.590018,-2582,-7660,424,-871,324,1752,59.89251781,65.99460411,59.97264401,65.18,0.01251781,0.014604112,0.032045593,-0.000797883
202,-5,0.7,4,89.43661972,2856,-11750,1652,734,2338,3204,-2463.903704,-7721,568.3521883,-904.0278716,336.5795455,1803.755978,59.91785874,66.02416853,60,65.17699219,0.025340932,0.029564421,0.027355994,-0.003007813
202,-5,0.7,4,90.14084507,2808.296296,-11037.87137,1549.615138,523.1488282,1826.551481,2195.805836,-2368,-7782,692,-970,351,1876,59.93770405,66.04732139,60,65.1209375,0.019845308,0.02315286,0,-0.056054687
202,-5,0.7,4,90.84507042,2719.703704,-9643.964971,1297.008053,301.7260481,1257.655746,1095.474897,-2385.844828,-7676,896.1727575,-1057.85782,381.6728272,1939.220996,59.94,66.02785156,59.98285365,65.12127269,0.00229595,-0.01946983,-0.017146346,0.000335185
202,-5,0.7,4,91.54929577,2672,-8682,976,124,773,245,-2440,-7570,1026,-1167,423,2019,59.94,65.98,59.94059841,65.17365732,0,-0.047851563,-0.042255241,0.052384635
202,-5,0.7,4,92.25352113,3142,-8424,490,12,436,-236,-2830,-7810,628,-1285,469,2164,59.94,65.98,59.94,65.30738129,0,0,-0.000598412,0.133723967
202,-5,0.7,4,92.95774648,3053.349866,-8442.291034,97.13393055,-25.72837404,134.9678784,-792.1465971,-3015.9749,-7814.943117,606.4566787,-1342.079025,569.0736329,2241.069006,59.94,65.97111859,59.94,65.41693995,0,-0.008881414,0,0.109558666
202,-5,0.7,4,93.66197183,2814,-8506,-228,-61,-146,-1245,-3230,-7820,600,-1367,715,2303,59.94,65.865342,59.94,65.45515203,0,-0.105776589,0,0.038212076
202,-5,0.7,4,94.36619718,1900,-11798,-472,-146,-409,-1456,-3920,-9026,890,-1334,912,2369,59.96214126,65.73311408,59.95714635,65.49438014,0.022141258,-0.132227921,0.017146346,0.039228115
202,-5,0.7,4,95.07042254,2187.34715,-8824,-166.0371795,-375.0628492,-355.9319834,-1742.229811,-3160,-10606,760,-1448,1086,2271,60,65.61,59.99940159,65.53567177,0.037858742,-0.123114076,0.042255241,0.041291631
202,-5,0.7,4,95.77464789,2532,-5850,190,-547,-230,-2086,-1650,-10002,786,-1584,1009,2136,60,65.5688524,60,65.58917143,0,-0.041147602,0.000598412,0.053499659
202,-5,0.7,4,96.47887324,2630.65285,-7519,248.6228602,-544.2052515,198.4319834,-2603.091706,-1134.113953,-10013.62368,486.2962963,-1691.645354,1028.402322,2286.602921,60,65.51851769,60,65.64950388,0,-0.050334706,0,0.060332446
202,-5,0.7,4,97.18309859,2672,-9188,308,-536,554,-2939,-800.501421,-10049.6918,-70.2962963,-1786.300273,1069.360199,2621.428064,60,65.42148231,60,65.68740222,0,-0.097035384,0,0.037898345
202,-5,0.7,4,97.88732394,1072.465915,-7109,648.02839,-200.7947485,192.5326165,-2651.972138,-682,-10112,-370,-1875,1106,2965,60,65.36753649,59.98571363,65.69,0,-0.053945815,-0.014286369,0.002597776
202,-5,0.7,4,98.5915493,-1974,-5030,1042,129,-480,-2079,-916,-11025.67242,3.297752809,-1958.493824,1128.007533,3339.363381,60,65.33,59.94368676,65.69,0,-0.037536493,-0.042026868,0
202,-5,0.7,4,99.29577465,-5576,-6742,1198,42,-1223,-1302,-1150,-12616,494,-2038,1150,3569,60,65.28979941,59.89831731,65.72212914,0,-0.040200586,-0.04536945,0.032129136
202,-5,0.7,4,100,-5228.878928,-5912,-1371,-61.7352071,-871.0809165,-1518.17986,-1138,-14228,666,-2117,1180,3565,60,65.24690396,59.88,65.7724338,0,-0.042895453,-0.018317313,0.05030466
202,-5,0.7,1,0,-4400,-5082,-3940,-123,-192,-1926,-1237,-13432,756.0278929,-2120.946523,1304.135036,3728.92323,60,65.19935495,59.88,65.81267773,0,-0.047549012,0,0.040243929
202,-5,0.7,1,0.680272109,-2430,-10604,-2426,110,642,-2395,-1336,-12636,836,-2124,1406,4017,59.97785874,65.09685267,59.88,65.86590753,-0.022141258,-0.102502275,0,0.053229808
202,-5,0.7,1,1.360544218,-336,-12714,988,723,587,-2809,-698,-14021,936.9098768,-2140.418919,1384.779762,4292.651195,59.94,64.97,59.88,65.91,-0.037858742,-0.126852673,0,0.044092466
202,-5,0.7,1,2.040816327,2174.554557,-9792,3313.758764,638.0707024,46.68944791,-3097.304012,-60,-15406,1068,-2154,1344,4568,59.94,64.90542611,59.83898438,65.91,0,-0.06457389,-0.041015625,0
202,-5,0.7,1,2.721088435,3660,-6870,4448,400,-448,-3319,-151.8014015,-14499.46075,1357.617486,-2146.5,1281.220238,4832.979395,59.94,64.85519415,59.82,65.91883402,0,-0.050231958,-0.018984375,0.008834019
202,-5,0.7,1,3.401360544,1262,-9528,1736,-683,-404,-3478,-440,-12852,1568,-2139,1238,5018,59.94,64.83077632,59.82,65.97116598,0,-0.024417833,0,0.052331962
202,-5,0.7,1,4.081632653,759.542508,-8597,-896.5632926,-593.1004016,-69.17887564,-3905.909358,-3128,-11152,768,-2165,1452,5077,59.94,64.85919067,59.82,65.98,0,0.028414353,0,0.008834019
202,-5,0.7,1,4.761904762,582,-7666,-2346,-441,230,-4227,-6905.889111,-12124,245.3427459,-2204.090909,1713.295893,5147.406977,59.94,64.9,59.82,65.98,0,0.040809328,0,0
202,-5,0.7,1,5.442176871,2326,-7670.390244,-765,-292.7047932,46,-4050.569889,-9674,-13096,-6,-2229,1957,5189,59.94,64.9,59.85785874,66.01388962,0,0,0.037858742,0.033889618
202,-5,0.7,1,6.12244898,4070,-7682,816,-185,-138,-3774,-10421.0996,-12635.48609,141.5902439,-2092.814385,2103.189894,4519.933685,59.94,64.90980256,59.87446289,66.06486452,0,0.009802565,0.016604149,0.050974904
202,-5,0.7,1,6.802721088,2395,-7742.307598,383,-157.3097477,-137.49375,-3559.596199,-10718,-11522,482,-1910,2273,3442,59.94,64.96422959,59.82553711,66.11547955,0,0.05442703,-0.048925781,0.050615031
202,-5,0.7,1,7.482993197,720,-7830,-50,-133,-136,-3415,-8198,-8758,1202,-1840,2692,2664,59.94,64.97,59.82,66.12,0,0.005770405,-0.005537109,0.004520447
202,-5,0.7,1,8.163265306,1377.920673,-7912.302158,88.25467775,-65.77019261,-56.50625,-3380.441724,-4598.407767,-6664.846589,1854.879406,-1407.270876,2921.699821,1424.20954,59.94,64.97,59.82,66.12,0,0,0,0
202,-5,0.7,2,8.843537415,2240,-7960,378,-11,22,-3342,-2342,-4242,2206,-832,3026,400,59.94,64.97,59.82,66.07583147,0,0,0,-0.044168532
202,-5,0.7,2,9.523809524,2538,-7872,832,-4,-52,-3114,-4087,1886.258923,609.1574223,-432.7078102,2326.123125,-16.60625655,59.94,64.97,59.82,66.05,0,0,0,-0.025831468
202,-5,0.7,2,10.20408163,2876.271236,-7904.484188,766.6666667,-0.114614972,-61.37542966,-2862.648597,-5832,6428,-2140,-173,1434,-197,59.94,64.97,59.82,66.05,0,0,0,0
202,-5,0.7,2,10.88435374,3204.580062,-7988.079487,645.3333333,2.945373232,-65.33595074,-2594.125068,-2408,4426,-4562,-94,1162,-105,59.94,65.01726128,59.82,66.05,0,0.047261277,0,0
202,-5,0.7,2,11.56462585,3352,-8102,580,9,-74,-2306,-252,2760,-3786,260,1045,-451,59.94,65.11567681,59.82,66.05,0,0.098415529,0,0
202,-5,0.7,2,12.24489796,3248,-8314,612,43,-120,-1982,241.0146425,1375.487715,-2160.286862,608.1135825,1114.222222,-1103.866399,59.94,65.16769729,59.82,66.09416853,0,0.052020485,0,0.044168532
202,-5,0.7,2,12.92517007,3383,-8270.045113,590,66.9537998,-119.7764505,-1702.5,534.7295435,152.9927649,-164.4767644,953.1457401,1242.777778,-1963.674912,59.9484022,65.18,59.82,66.12,0.008402198,0.012302709,0,0.025831468
202,-5,0.7,2,13.60544218,3518,-8166,568,93,-119,-1423,632,-772,810,1298,1312,-2724,59.99505394,65.18,59.82,66.12,0.04665174,0,0,0
202,-5,0.7,2,14.28571429,3348,-7926,706,139,-83,-1099,350.884058,-1424.477915,196.5341635,1643.620834,1178.367583,-3281.763936,60,65.12305664,59.82,66.12,0.004946061,-0.056943359,0,0
202,-5,0.7,2,14.96598639,3634,-7854,758,148,-117,-854,-82,-1870,-808,1989,915,-3762,60.00059841,65.0413963,59.82,66.12,0.000598412,-0.081660345,0,0
202,-5,0.7,2,15.6462585,3259.535562,-7867.977905,738,156.4215328,-142.2922078,-618.2261971,-391.4817256,-2113.24885,-1760.534163,2340.800736,570.2468491,-4191.169466,60.04285365,65.13999186,59.82,66.15479004,0.042255241,0.098595563,0,0.034790039
202,-5,0.7,2,16.32653061,2536,-7912,718,161,-155,-409,-610,-2316,-2322,2679,166,-4567,60.06,65.158125,59.82,66.22253906,0.017146346,0.018133142,0,0.067749023
202,-5,0.7,2,17.00680272,1644,-8334,722,156,-146,-251,-686.8008489,-2550.603546,-2062.041451,3000.313884,-229.7096294,-4902.155709,60.06,65.04601563,59.82,66.26831543,0,-0.112109375,0,0.045776367
202,-5,0.7,2,17.68707483,1431.62187,-8317.819853,839.9393954,152.0357143,-111.8958622,-255.7044025,-768,-2818,-1644,3269,-599,-5176,60.06,65.07191533,59.82,66.27,0,0.025899702,0,0.00168457
202,-5,0.7,2,18.36734694,1286,-8280,1028,150,-78,-268,-1040,-3178,-1344,3443,-890,-5361,60.05880318,65.10930185,59.82,66.27,-0.001196825,0.037386526,0,0
202,-5,0.7,2,19.04761905,1039.882275,-8209.390035,1206.823729,193,-68.89348371,-324.9075726,-1282.701054,-3764.5741,-1349.715797,3618.771338,-1079.722656,-5605.825027,59.97429269,65.06000407,59.82,66.27,-0.084510482,-0.049297781,0,0
202,-5,0.7,2,19.72789116,888,-8062,1312,236,-62,-410,-1513.843925,-4538.77856,-1363.876039,3785.680093,-1228.687996,-5872.292497,59.94,65.04,59.82,66.27794061,-0.034292693,-0.020004071,0,0.00794061
202,-5,0.7,2,20.40816327,1226,-7508,1062,75,-53,-482,-1762,-5396,-1382,3892,-1302,-6068,59.94,65.04,59.82,66.33418292,0,0,0,0.05624231
202,-5,0.7,2,21.08843537,1131,-7596.578013,1212,36.3870084,-57.45168067,-528.9778249,-2050,-6378,-1410,3933,-1317,-6166,59.91264401,65.00808467,59.82,66.38120052,-0.027355994,-0.031915327,0,0.047017605
202,-5,0.7,2,21.76870748,1036,-7744,1362,16,-66,-573,-2628,-7994,-1162,4047,-1280,-6274,59.88,64.97,59.82,66.42421413,-0.032644006,-0.038084673,0,0.043013605
202,-5,0.7,2,22.44897959,1155.777778,-7850.414618,1245.862884,-1.134986226,-74.1237303,-642.459403,-2852,-8650,-742,4132,-1265,-6356,59.88,64.97,59.82,66.46477727,0,0,0,0.040563144
202,-5,0.7,2,23.1292517,1378.222222,-7956.592827,1027.059102,-14.56749311,-84.5630535,-717.7297015,-3082,-9322,-250,4142,-1162,-6498,59.88,64.94918058,59.82,66.51147663,0,-0.020819423,0,0.046699353
202,-5,0.7,2,23.80952381,1498,-8096,900,-20,-101,-753,-3238,-9694,28,4085,-1021,-6588,59.88,64.85197333,59.82,66.56532017,0,-0.097207242,0,0.053843544
202,-5,0.7,2,24.48979592,924,-8336,890,-10,-147,-737,-3498,-9924,266,3949,-810,-6725,59.88,64.79672954,59.82,66.57,0,-0.055243794,0,0.004679829
202,-5,0.7,2,25.17006803,1244,-7994,1034,-18,-57,-865,-3260.952062,-10147.85833,48.39364303,3880.103512,-682.6539268,-6763.503857,59.88,64.75561731,59.82,66.57038728,0,-0.041112232,0,0.000387284
202,-5,0.7,2,25.85034014,1161,-7996,1202.515524,-33.98426063,-50.86842105,-946.2138522,-2962,-10280,-292,3846,-623,-6778,59.88,64.71156476,59.82,66.60589049,0,-0.044052552,0,0.03550321
202,-5,0.7,2,26.53061224,1078,-7998,1350,-57,-49,-1003,-2875.22327,-10291.85457,-569.1442543,3838.343,-691.6961486,-6776.33935,59.88,64.66482329,59.82,66.66759454,0,-0.046741465,0,0.061704046
202,-5,0.7,2,27.21088435,1290,-7768,1436,-89,-76,-1037,-2819.874261,-10296.95198,-826.5721271,3833.615944,-849.281186,-6772.234255,59.88,64.62179756,59.82,66.76158085,0,-0.043025733,0,0.093986311
202,-5,0.7,2,27.89115646,806,-7862,1218,-116,-131,-1123,-2732,-10310,-940,3832,-1023,-6767,59.88,64.64914716,59.82,66.85548654,0,0.027349599,0,0.093905693
202,-5,0.7,2,28.57142857,910.8125645,-7905.11375,1167.318434,-133.6067255,-127.3703704,-1217.835224,-2502,-10458,-734,3854,-1204,-6759,59.87940159,64.69588267,59.81940159,66.94919895,-0.000598412,0.046735516,-0.000598412,0.093712401
202,-5,0.7,2,29.25170068,1176.422429,-7932.121077,1127.80315,-145.8181567,-118.2962963,-1324.966865,-2223.034148,-10702.27532,-416.1529379,3858.441748,-1285.473951,-6693.264437,59.86285365,64.72470706,59.77714635,67.04360462,-0.016547934,0.028824387,-0.042255241,0.094405676
202,-5,0.7,2,29.93197279,1529.587848,-7951.767674,1098.583908,-156.2487465,-106.5,-1431.222042,-1906,-10898,-62,3860,-1330,-6566,59.83714635,64.74801574,59.76,67.11137084,-0.025707307,0.023308681,-0.017146346,0.067766222
202,-5,0.7,2,30.6122449,1897.06708,-7972.799232,1078.790464,-168.5129483,-94.7037037,-1523.427877,-1481.952736,-10949.80979,300.3412036,3807.943517,-1345.75335,-6362.784682,59.82059841,64.75962589,59.76,67.15682608,-0.016547934,0.011610144,0,0.045455233
202,-5,0.7,2,31.29251701,2205.618378,-8003.961443,1067.552576,-186.225215,-85.62962963,-1588.411489,-1156,-10990,554,3713,-1361,-6099,59.82,64.76,59.76,67.27857684,-0.000598412,0.000374115,0,0.121750766
202,-5,0.7,2,31.97278912,2382,-8054,1064,-213,-82,-1613,-1066,-11050,622,3614,-1403,-5818,59.82,64.76,59.76,67.40591243,0,0,0,0.127335584
202,-5,0.7,2,32.65306122,2461.470717,-8263.59799,1231,-338.1277154,-143.1120092,-1574.722569,-769.152819,-10963.13306,789.2517553,3471.438398,-1425.096774,-5395.518588,59.82,64.76,59.76,67.44147268,0,0,0,0.035560259
202,-5,0.7,2,33.33333333,2498,-8442,1398,-447,-220,-1515,-536,-10792,912,3273,-1435,-4923,59.80748219,64.74539589,59.76,67.52810555,-0.01251781,-0.014604112,0,0.086632865
202,-5,0.7,2,34.01360544,2056,-7892,884,-399,-242,-1476,-1163,-10506.86694,834,2949.096764,-1311.080574,-4530.700111,59.76229595,64.69267861,59.76,67.75650801,-0.045186241,-0.052717281,0,0.228402458
202,-5,0.7,2,34.69387755,2502,-7942,1114,-418,-381,-1483,-1790,-10306,756,2533,-1074,-4070,59.76,64.725,59.76,67.82102775,-0.00229595,0.032321392,0,0.064519741
202,-5,0.7,2,35.37414966,2138.518519,-8210.955443,1383.4858,-437.3006348,-387.6236681,-1469.518519,-1730,-10688,902,2067,-790,-3278,59.76,64.76,59.76,67.86685477,0,0.035,0,0.045827018
202,-5,0.7,2,36.05442177,1463.481481,-8630.144388,1648.409567,-457.411187,-391.0340563,-1444.481481,-2054.02533,-11192.07673,1108.755618,1702.957388,-546.3071354,-2393.919017,59.76,64.76,59.76,67.96761264,0,0,0,0.100757872
202,-5,0.7,2,36.73469388,1100,-8848,1768,-481,-392,-1431,-2452,-11500,1238,1367,-323,-1506,59.74608398,64.77623535,59.77131687,68.04092674,-0.013916016,0.016235352,0.011316872,0.073314102
202,-5,0.7,2,37.41496599,1269.835766,-8691.721289,1190.254913,-515.8448446,-392,-1535.3327,-2581.97467,-11183.77715,1212.375176,991.8045078,-106.4777409,-652.3268638,59.70067383,64.82921387,59.81555556,68.08660434,-0.045410156,0.052978516,0.044238683,0.045677597
202,-5,0.7,2,38.0952381,1554,-8366,530,-548,-392,-1695,-2638,-10552,1142,667,87,87,59.7,64.795,59.82,68.07115385,-0.000673828,-0.034213867,0.004444444,-0.015450492
202,-5,0.7,2,38.7755102,1784,-7864,426,-564,-362,-1793,-2464,-9646.158413,520.0847991,435.3829922,251.5297908,638.6763915,59.7,64.76078613,59.82052434,68.0005727,0,-0.034213867,0.000524335,-0.070581146
202,-5,0.7,2,39.45578231,2128,-7810,130,-591,-384,-1876,-2290,-8664,-180,280,384,1076,59.7,64.81376465,59.86005444,67.80532046,0,0.052978516,0.039530103,-0.195252244
202,-5,0.7,2,40.13605442,2286.680531,-7661.76097,195.5157264,-594.6779776,-335,-1955.326059,-2334,-7888.910607,-392.4599754,200.4144164,496.0289079,1432.253723,59.7,64.81266411,59.89289874,67.6076957,0,-0.001100542,0.032844301,-0.197624752
202,-5,0.7,2,40.81632653,2406,-7550,342,-598,-286,-2033,-2378,-7324,-482,151,554,1697,59.7,64.70903832,59.91730653,67.41737901,0,-0.10362579,0.024407789,-0.190316697
202,-5,0.7,2,41.49659864,2538.421016,-7710.222222,731.3053753,-624.9952398,-318.6098457,-2112.442559,-2066,-7058,-476,124,498,1851,59.7,64.59138798,59.93487968,67.2538341,0,-0.117650333,0.01757315,-0.163544904
202,-5,0.7,2,42.17687075,2664.348823,-8007.777778,1284.652688,-672.8360471,-387.2196914,-2191.240459,-1816,-6478,-88,21,491,1845,59.7,64.55,59.94,67.15766224,0,-0.041387985,0.005120321,-0.096171864
202,-5,0.7,2,42.85714286,2764,-8168,1566,-710,-448,-2263,-1577.608148,-6452.665925,-182.8537015,-61.318886,396.6540884,1836.75819,59.7,64.55,59.94,67.11674599,0,0,0,-0.040916248
202,-5,0.7,2,43.53741497,2818.599182,-8094.652928,1307.193277,-730.8295129,-489.5797131,-2338.527282,-1361.915185,-6439.666296,-383.9296253,-131.6122962,186.9861695,1827.955361,59.7,64.53185185,59.94,67.02690617,0,-0.018148148,0,-0.089839824
202,-5,0.7,2,44.21768707,2888,-7934,870,-741,-519,-2381,-1268,-6436,-566,-172,-63,1823,59.7,64.48240055,59.94,66.87698555,0,-0.049451303,0,-0.149920619
202,-5,0.7,2,44.89795918,3300.95253,-7633.821357,512.7012589,-726.030303,-535.4842105,-2366.282534,-1346,-6476,-682,-185,-383,1822,59.7,64.48,59.97,66.87,0,-0.002400549,0.03,-0.006985549
202,-5,0.7,2,45.57823129,3826,-7246,138,-703,-543,-2336,-1324,-6486,-576,-198,-577,1818,59.69936556,64.48041009,60,66.87267861,-0.000634444,0.000410092,0.03,0.002678608
202,-5,0.7,2,46.2585034,4168.427885,-6802.525714,-380.8945362,-684.969697,-523.9982639,-2282.565466,-1238,-6436,-444,-242,-836,1833,59.68196844,64.49298684,60,66.92539589,-0.017397112,0.012576743,0,0.052717281
202,-5,0.7,2,46.93877551,4344,-6534,-704,-675,-488,-2235,-522,-9602,-936,-313,-1025,1774,59.65555556,64.5176792,60.00371483,66.93567188,-0.026412889,0.024692368,0.003714834,0.010275987
202,-5,0.7,2,47.61904762,4100.969988,-6823.227975,-376.6738255,-682.0714286,-435.0017361,-2218.152,903.5051129,-4423,2326.374762,147.8161435,-2592.716925,1298.473975,59.64016195,64.54708514,60.02592036,66.90389023,-0.015393605,0.029405936,0.022205526,-0.031781645
202,-5,0.7,2,48.29931973,3656,-7372,134,-697,-399,-2211,1892,756,6854,725,-4006,620,59.64,64.58434718,60.05113115,66.84759328,-0.00016195,0.037262036,0.025210786,-0.056296945
202,-5,0.7,2,48.97959184,3204.72426,-7980.872976,471.9622268,-721.8130054,-438.9903226,-2291.28169,1461,-8266,9360.625238,881.1281875,-1703.699873,46.48365056,59.64,64.62885489,60.06,66.7665077,0,0.044507714,0.008868854,-0.081085583
202,-5,0.7,2,49.65986395,2678,-8736,786,-752,-497,-2451,1030,-17288,10602,1025,946,-275,59.64,64.67554801,60.06,66.54458068,0,0.046693122,0,-0.22192702
202,-5,0.7,2,50.34013605,1933.986944,-9672.584785,1177.711599,-777.5375406,-529.5411544,-2661.326669,3848,-5752,5706,1327,1387,-196,59.64,64.70805615,60.06,66.57813477,0,0.032508141,0,0.033554083
202,-5,0.7,3,51.02040816,1396,-10740,1410,-803,-554,-2921,4242.030758,-6836,-1698.763794,172.5,1029.786348,748.8736818,59.64,64.73604838,60.06,66.86573242,0,0.027992228,0,0.287597656
202,-5,0.7,3,51.70068027,1308,-11878,1340,-830,-570,-3200,4372,-7920,-6426,-982,494,1995,59.64,64.75536942,60.06,66.8089939,0,0.019321041,0,-0.056738519
202,-5,0.7,3,52.38095238,1844,-11845.96274,1198.941553,-804.5774648,-640.2054716,-3332.35467,3854.671979,-7915.863009,-4187.037037,-899.5555556,109.1946412,2690.736929,59.64,64.76,60.06067383,66.71390863,0,0.004630578,0.000673828,-0.095085271
202,-5,0.7,3,53.06122449,2380,-11748,1016,-750,-756,-3448,2554.677291,-7901.503796,-28.96296296,-746.4444444,-231.2915683,3252.729993,59.64,64.76,60.10608398,66.66290222,0,0,0.045410156,-0.051006415
202,-5,0.7,3,53.7414966,1406,-11004,824,-658,-902,-3618,850,-7874,2210,-664,-378,3604,59.64,64.76,60.12,66.61760516,0,0,0.013916016,-0.045297055
202,-5,0.7,3,54.42176871,1500.876116,-11339.94204,360.5290299,-662.2168675,-940.8228129,-3788.530713,-1974,-7444,2158,-1217,-181,3759,59.64,64.76,60.12,66.57449655,0,0,0,-0.043108609
202,-5,0.7,3,55.10204082,1720,-11876,22,-672,-964,-3944,-2094,-7470,1660,-1604,248,3663,59.64,64.76,60.12,66.51744054,0,0,0,-0.057056015
202,-5,0.7,3,55.78231293,2492.418197,-12313.49433,273.5555556,-696.3310135,-983.5634357,-4088.481389,-2258.823696,-7413.481481,1305.901018,-1596.222222,154.4074074,3831.518519,59.64,64.76905714,60.12,66.49,0,0.00905714,0,-0.027440538
202,-5,0.7,3,56.46258503,4040.366403,-12790.20608,902.4444444,-743.5714252,-997.2307522,-4238.949511,-2469.465574,-7308.518519,1019.728287,-1581.777778,-19.40740741,4144.481481,59.64,64.86706979,60.12,66.49,0,0.098012646,0,0
202,-5,0.7,3,57.14285714,5955.371653,-13253.17388,1720,-808.4898824,-1008.955008,-4381.0199,-2742,-7252,902,-1574,-113,4313,59.64,64.92970288,60.12,66.44864489,0,0.062633096,0,-0.041355111
202,-5,0.7,3,57.82312925,7828.960979,-13649.43637,2537.555556,-885.8550325,-1022.689262,-4500.308089,-3314.209705,-7356,1261,-1648.5,-36.5,3931.444364,59.64,64.97,60.12,66.29613057,0,0.040297118,0,-0.152514321
202,-5,0.7,3,58.50340136,9252.661417,-13926.0322,3166.444444,-970.4355225,-1042.386573,-4582.429611,-3732,-7460,1620,-1723,40,3397,59.64,65.00877357,60.12,66.1838203,0,0.038773574,0,-0.112310264
202,-5,0.7,3,59.18367347,9818,-14030,3418,-1057,-1072,-4613,-3056,-7439,822.4818868,-1620.04849,22.5,3132.779833,59.64,65.04866912,60.12,66.08381637,0,0.039895542,0,-0.100003935
202,-5,0.7,3,59.86394558,8765.727763,-13295.9219,3367.705171,-1181.363386,-1208.443951,-4339.620245,-2380,-7418,-278,-1447,5,2938,59.64,65.09545702,60.12,65.96727493,0,0.046787905,0,-0.116541441
202,-5,0.7,3,60.54421769,6357.440701,-11466.12506,3233.547124,-1343.406343,-1491.711365,-3659.237321,-3116,-7724,-748,-1305,31,2801,59.64,65.12550347,60.12,65.78734642,0,0.03004645,0,-0.179928506
202,-5,0.7,3,61.2244898,3715.933289,-9099.265691,3040.615514,-1483.996129,-1840.373097,-2781.485736,-3058.282609,-7600,-572.8566058,-1153.094019,55.41283639,2582.035901,59.64,65.14461909,60.12,65.55680241,0,0.019115616,0,-0.230544009
202,-5,0.7,4,61.9047619,1964,-6754,2814,-1544,-2173,-1916,-2936,-7476,-242,-995,74,2299,59.64,65.16294217,60.12,65.42352991,0,0.018323079,0,-0.133272508
202,-5,0.7,4,62.58503401,1073.779649,-4158.417574,2478.918249,-1537.5,-2565.36661,-804.1313396,-2738,-8208,140,-831,83,1944,59.64,65.18937014,60.12,65.30286735,0,0.026427976,0,-0.120662558
202,-5,0.7,4,63.26530612,650,-1730,1966,-1531,-2809,-87,-2882,-7858,66,-719,66,1801,59.64,65.2297204,60.12,65.15784529,0,0.040350259,0,-0.145022059
202,-5,0.7,4,63.94557823,8488,-246,1104,-1657,-2345,-405,-3520,-7820,310,-578,66,1501,59.64,65.27783871,60.12,65.05567872,0,0.048118305,0,-0.102166565
202,-5,0.7,4,64.62585034,7049.974352,281.8927203,-299.8936696,-1473.592553,-1859.269335,-245.6821239,-3201.022093,-7807.077493,321.154006,-486.7064053,77.5,1288.181276,59.64,65.3255634,60.12,64.97834284,0,0.047724697,0,-0.077335882
202,-5,0.7,4,65.30612245,4151.948705,626.6130268,-1872.50239,-1063.296217,-1403.023556,153.41353,-2630,-7790,332,-416,89,1104,59.64,65.36940274,60.12,64.87232241,0,0.043839334,0,-0.106020434
202,-5,0.7,4,65.98639456,1918,750,-2618,-636,-1201,674,-2066,-7586,494,-360,77,925,59.64,65.41324045,60.12,64.83250017,0,0.043837709,0,-0.03982224
202,-5,0.7,4,66.66666667,875.2494896,-595.4919868,-1391.128923,-221.1241622,-1388.735509,1575.900986,-2540,-7682,356,-310,59,908,59.64,65.45737526,60.12,64.86999076,0,0.044134817,0,0.037490591
202,-5,0.7,4,67.34693878,210,-2094,170,147,-1655,2621,-2277.148718,-7645,674,-276.3461538,63.8,840.2786005,59.61983539,65.49508204,60.12,64.98017049,-0.020164609,0.037706775,0,0.110179735
202,-5,0.7,4,68.02721088,-106,-2282,642,366,-1781,3361,-1944,-7608,992,-260,71,763,59.58053498,65.53464853,60.12,65.17723305,-0.039300412,0.039566496,0,0.197062556
202,-5,0.7,4,68.70748299,-304,-1872,288,594,-1678,4114,-1816.851282,-7616.152651,967,-265,76.2,725.7019176,59.58,65.61384427,60.12,65.18,-0.000534979,0.07919574,0,0.002766951
202,-5,0.7,4,69.3877551,-124.3137255,-1418.844526,-738.0047782,834.6439275,-1408.726911,4609.656306,-1760,-7644,942,-270,79,698,59.58,65.72947001,60.12,65.18,0,0.11562574,0,0
202,-5,0.7,4,70.06802721,170,-1158,-1640,1105,-1023,5048,-1880,-8442,1026,-231,66,676,59.58,65.88217271,60.12,65.18,0,0.152702693,0,0
202,-5,0.7,4,70.74829932,449.3137255,-1395.488019,-1841.123188,1457.596226,-559.8797549,5542.287866,-1865.648438,-8415.427265,1024.625,-235.3850859,66.92616348,684.8121721,59.58,65.94428426,60.12,65.2053125,0,0.062111549,0,0.0253125
202,-5,0.7,4,71.42857143,614,-1876,-1920,1825,-112,6024,-1827.8125,-8344.625623,1021,-247.1685088,69.67541766,709.3113759,59.58,65.98,60.12,65.26,0,0.035715743,0,0.0546875
202,-5,0.7,4,72.10884354,214,-2554,-1856,2132,184,6451,-1774.320313,-8242.969917,1015.875,-264.2925166,74.20390811,746.5916423,59.58,66.02117647,60.12,65.21336077,0,0.041176471,0,-0.046639232
202,-5,0.7,4,72.78911565,266.3377461,-3422.54919,-1663.288132,2364.309361,515.4105149,6865.722502,-1713,-8123.834994,1010,-284.6993569,80.46778043,793.7470024,59.58,66.06263896,60.12257813,65.18,0,0.041462489,0.002578125,-0.033360768
202,-5,0.7,4,73.46938776,411.567323,-4420.636189,-1356.089451,2572.629299,870.9546271,7278.541764,-1651.679688,-8000.595696,1004.125,-306.3312776,88.42318019,847.8714872,59.58,66.10506392,60.170625,65.18,0,0.042424963,0.048046875,0
202,-5,0.7,4,74.14965986,632.0132384,-5428.905094,-1071.346044,2739.134587,1171.771426,7644.090144,-1598.1875,-7886.626868,999,-327.1305265,98.02625298,906.0591277,59.58112085,66.14130739,60.18,65.15785156,0.001120852,0.036243467,0.009375,-0.022148438
202,-5,0.7,4,74.82993197,910,-6328,-946,2846,1339,7917,-1560.351563,-7795.303354,995.375,-345.0393514,109.2331444,965.403955,59.5875145,66.17843617,60.18,65.11,0.00639365,0.037128778,0,-0.047851563
202,-5,0.7,4,75.51020408,1525.598307,-7046.176412,-1030,2901.017313,1404.036873,8075.913599,-1546,-7740,994,-358,122,1023,59.59863885,66.21601507,60.18,65.19104657,0.011124347,0.037578905,0,0.081046574
202,-5,0.7,4,76.19047619,2354,-7768,-1114,2942,1432,8233,-2140,-7716,1198,-366,152,1090,59.61342514,66.25223204,60.18,65.27719464,0.014786288,0.036216971,0,0.086148067
202,-5,0.7,4,76.8707483,3266.618032,-8651.795099,-355,2991.758621,1157.17337,8588.453413,-1984.697222,-7662.028708,1195.875,-404.5220679,146,1143.451435,59.63080461,66.28527502,60.18,65.32423866,0.017379473,0.033042976,0,0.047044021
202,-5,0.7,4,77.55102041,3816,-9630,404,3020,832,8840,-1814,-7596,1190,-466,140,1199,59.64970851,66.31333194,60.18,65.31619017,0.0189039,0.028056921,0,-0.008048487
202,-5,0.7,4,78.23129252,3578.600153,-10962.20914,365.8900792,2961.628613,746.3266297,8817.107477,-1797.187884,-7527.789474,1144.791667,-533.4924455,153.3,1273.400317,59.66906808,66.33459074,60.18,65.26470251,0.019359571,0.021258805,0,-0.051487666
202,-5,0.7,4,78.91156463,3124,-11794,248,2896,711,8769,-1780,-7488,1070,-608,178,1360,59.68781457,66.34723937,60.18,65.21508765,0.018746485,0.012648629,0,-0.049614859
202,-5,0.7,4,79.59183673,2578,-11602,-728,2887,885,8693,-1554.114894,-7612.878419,999.9435028,-682.4346814,211.7169492,1454.99399,59.70495602,66.34240401,60.18,65.16429785,0.017141451,-0.004835365,0,-0.050789798
202,-5,0.7,4,80.27210884,2768,-11493.6552,-1167.967117,2878.269543,1276.31582,8498.000065,-1344,-7820,920,-757,235,1561,59.72156186,66.23150852,60.18,65.11432715,0.016605839,-0.11089549,0,-0.049970703
202,-5,0.7,4,80.95238095,2958,-11444,-1356,2864,1711,8269,-1455,-8024.121581,796.3898305,-833.473586,236.0285054,1682.033618,59.74000157,66.05467678,60.18,65.13352538,0.018439713,-0.17683174,0,0.019198229
202,-5,0.7,4,81.63265306,2640,-11577,-746.7344718,2772.345718,2053.746114,8111.934089,-1566,-8146,716,-900,237,1811,59.76273317,65.89692755,60.18,65.17937586,0.022731596,-0.157749226,0,0.04585048
202,-5,0.7,4,82.31292517,2322,-11710,146,2617,2236,7973,-1504.296296,-8009.62963,882.962963,-940.5686131,248.3066243,1936.245395,59.80393512,65.76092683,60.1444043,65.13847168,0.041201957,-0.136000722,-0.035595703,-0.040904178
202,-5,0.7,4,82.99319728,2480,-11470,620,2440,2235,7842,-1389.703704,-7756.37037,1193.037037,-973.0873369,277.067794,2063.30106,59.82,65.67151362,60.12,65.11645996,0.016064877,-0.08941321,-0.024404297,-0.022011719
202,-5,0.7,4,83.67346939,2670,-11896,632,2162,2075,7741,-1328,-7620,1360,-1023,321,2201,59.82,65.62645838,60.12,65.17354004,0,-0.045055238,0,0.057080078
202,-5,0.7,4,84.3537415,2392,-12280,516,2029,1937,7584,-1616,-7662,1304,-1146,442,2361,59.82,65.54330306,60.10384287,65.18,0,-0.083155322,-0.016157134,0.006459961
202,-5,0.7,4,85.03401361,1748,-12296,624,1852,1668,7230,-2151.173335,-7788.279534,993.182145,-1198.125185,513.8122817,2487.265101,59.82,65.47,60.06,65.18,0,-0.073303059,-0.043842866,0
202,-5,0.7,4,85.71428571,2028,-13232,780,1759,1487,6921,-2632,-8056,726,-1220,583,2552,59.86101563,65.50260133,60.02470588,65.23047832,0.041015625,0.032601333,-0.035294118,0.050478323
202,-5,0.7,4,86.39455782,2120,-10130,1218,1534,1075,6368,-2857.988095,-9613.866607,833,-1217.613314,716.6328767,2545.471239,59.88,65.58153159,59.98787299,65.25340525,0.018984375,0.078930257,-0.036832892,0.022926929
202,-5,0.7,4,87.07482993,1785,-10016.315,1096.341463,1426.961622,691.5664478,5778.632112,-2960,-10998,940,-1210,807,2526,59.88,65.7319902,59.945862,65.19120293,0,0.150458606,-0.042010991,-0.06220232
202,-5,0.7,4,87.75510204,1450,-9946,874,1331,356,5103,-2138,-10078,892,-1128,621,2401,59.90214126,65.80096373,59.95898438,65.18,0.022141258,0.068973538,0.013122376,-0.011202931
202,-5,0.7,4,88.43537415,1451.697467,-9810.022339,621.8475871,1188.346221,46.73485786,4180.451176,-2285.940413,-9187.45278,647.590472,-1143,577.722973,2409.75,59.94,65.83,60,65.18,0.037858742,0.029036266,0.041015625,0
202,-5,0.7,4,89.11564626,1457.026578,-9643.753136,317.626086,1017.466607,-255.9689357,3064.784984,-2666.341101,-8287.555108,204.5804196,-1176,547.8648649,2429,59.94,65.76273926,60,65.2346875,0,-0.067260742,0,0.0546875
202,-5,0.7,4,89.79591837,1466.3424,-9471.107366,35.59154192,832.3536896,-487.9382614,1959.2263,-3184.071239,-7580.879881,-220.2198427,-1209,530.5743243,2448.25,59.94,65.63175781,60,65.26,0,-0.130981445,0,0.0253125
202,-5,0.7,4,90.47619048,1480,-9316,-150,647,-585,1067,-3744,-7270,-410,-1224,525,2457,59.94,65.54325684,60,65.26,0,-0.088500977,0,0
202,-5,0.7,4,91.15646259,1544,-9188,-232,459,-590,465,-4472,-7242,112,-1221,525,2402,59.96735599,65.54,60,65.3023543,0.027355994,-0.003256836,0,0.042354298
202,-5,0.7,4,91.83673469,1699.417194,-8794.207994,-355.7761199,268.3853062,-550.379668,-37.44368419,-4467.33125,-7163.487965,85.27804878,-1276.176101,572.6,2295.791349,60,65.53921868,60,65.4,0.032644006,-0.000781316,0,0.097645702
202,-5,0.7,4,92.5170068,1954,-8212,-484,121,-477,-494,-4454,-7104,24,-1345,637,2189,60,65.46791285,60,65.45347717,0,-0.071305838,0,0.053477169
202,-5,0.7,4,93.19727891,2390,-7560,-578,53,-397,-921,-4218.66875,-7441.176078,-148.3878049,-1362.799333,663.2636364,2117.694531,60,65.3417045,60.00553711,65.47,0,-0.126208345,0.005537109,0.016522831
202,-5,0.7,4,93.87755102,2555.182703,-7462.488919,-401.0346174,30.71459227,-400.4248166,-1200.958146,-3992,-7850,-298,-1380,685,2082,60,65.15252086,60.05446289,65.47,0,-0.189183641,0.048925781,0
202,-5,0.7,4,94.55782313,2688,-7430,-120,22,-410,-1407,-4066,-7946,-312,-1423,710,2095,60,65.04259393,60.06,65.4913702,0,-0.109926927,0.005537109,0.021370198
202,-5,0.7,4,95.23809524,2880,-7524,74,29,-453,-1546,-3855.13783,-8587.934598,-157.9198543,-1467.495033,744.5625,2143.122903,60.00067383,64.9612204,60.06,65.54407111,0.000673828,-0.081373534,0,0.052700908
