locomotion_mode,terrain_info,walk_speed_info,gait_phase,gait_percentage,left_accel_x,left_accel_y,left_accel_z,left_gyro_x,left_gyro_y,left_gyro_z,right_accel_x,right_accel_y,right_accel_z,right_gyro_x,right_gyro_y,right_gyro_z,left_hip_angle,left_knee_angle,right_hip_angle,right_knee_angle,left_hip_angle_vel,left_knee_angle_vel,right_hip_angle_vel,right_knee_angle_vel
100,0,1.3,2,21.80451128,284,-8288,588,39,-77,-386,-1822,-9142,-1416,3265,-1564,-7140,59.78502058,64.34,59.67785874,66.38035317,-0.034979424,0,0.037858742,-0.189646834
100,0,1.3,2,22.55639098,401,-8221,1004.118655,14.07926829,-74.12903226,-408.2232207,-2084,-9528,-1176,3206,-1807,-7248,59.76,64.34,59.7,66.23368697,-0.025020576,0,0.022141258,-0.146666201
100,0,1.3,2,23.30827068,518,-8154,1230,-28,-73,-426,-2104,-9930,-1026,3140,-1973,-7264,59.76,64.34,59.7,66.13565475,0,0,0,-0.098032218
100,0,1.3,2,24.06015038,498,-8226,1224,-63,-81,-440,-2128.76751,-10198.75379,-1003.537544,3045.373423,-2197.955015,-7219.435805,59.76,64.36214844,59.70985579,66.09567083,0,0.022148437,0.009855793,-0.039983919
100,0,1.3,2,24.81203008,478.6451613,-8225.560969,1102,-95.78224201,-88.74193548,-458.142562,-2160.814183,-10416.85998,-993.3909944,2929.864663,-2435.078854,-7110.649387,59.76,64.41,59.74802009,66.06849546,0,0.047851563,0.038164297,-0.02717537
100,0,1.3,2,25.56390977,468,-8224,980,-122,-93,-488,-2210,-10626,-974,2808,-2559,-6975,59.76,64.41,59.79563046,66.05276967,0,0,0.04761037,-0.015725785
100,0,1.3,2,26.31578947,824,-7766,974,-137,-77,-579,-2349.580512,-10819.98409,-903.6785992,2687.875686,-2579.882323,-6788.906326,59.76,64.41577041,59.83595283,66.05500228,0,0.005770405,0.040322365,0.002232611
100,0,1.3,2,27.06766917,1030.507572,-7346.437337,826.3865154,-223.3743243,-93.5,-620.1755655,-2546,-11042,-766,2548,-2588,-6544,59.76,64.47019744,59.8748225,66.09775491,0,0.05442703,0.038869675,0.042752624
100,0,1.3,2,27.81954887,1126,-7120,684,-298,-110,-656,-2719.553786,-11514.65359,-355.2744128,2348.999568,-2455.619007,-6252.816747,59.76,64.48,59.88,66.16726718,0,0.009802565,0.0051775,0.069512273
100,0,1.3,2,28.57142857,1050.79845,-7281.054852,709.7553957,-288,-98.5,-711.0311955,-2910,-11850,54,2134,-2243,-5924,59.76,64.48,59.88,66.27,0,0,0,0.102732818
100,0,1.3,2,29.32330827,948,-7560,764,-278,-87,-770,-3146,-11840,164,1953,-2091,-5577,59.76,64.51388962,59.88,66.36027979,0,0.033889618,0,0.090279788
100,0,1.3,2,30.07518797,912.0908946,-7872.945148,877.2446043,-288.3300712,-87.23913043,-829.2927385,-3424,-11498,244,1735,-1865,-4930,59.76,64.56226097,59.88,66.47620045,0,0.048371347,0,0.115920666
100,0,1.3,2,30.82706767,868,-8068,962,-312,-88,-872,-3572,-11052,266,1621,-1735,-4409,59.76,64.60419747,59.88,66.62659734,0,0.041936509,0,0.150396889
100,0,1.3,2,31.57894737,674,-7766,874,-361,-96,-886,-3649.579704,-10369.75342,36,1397.831514,-1513.920741,-3800.692319,59.76,64.6854611,59.9044043,66.64,0,0.081263625,0.024404297,0.013402657
100,0,1.3,2,32.33082707,625.6923486,-7807,774.060241,-391.5409238,-119.7591241,-898.9525782,-3738,-9634,-194,1122,-1236,-3123,59.76,64.76,59.93946502,66.64,0,0.0745389,0.035060724,0
100,0,1.3,2,33.08270677,608,-7848,716,-406,-138,-919,-4071.112182,-8939.891875,-181.7217742,865.9206486,-936.2957767,-2352.637152,59.74681025,64.76,59.90016461,66.64,-0.013189749,0,-0.039300412,0
100,0,1.3,2,33.83458647,1146,-7702,754,-404,-110,-995,-4370,-8464,-152,598,-604,-1549,59.72059771,64.76,59.88553711,66.63125251,-0.026212539,0,-0.0146275,-0.008747493
100,0,1.3,2,34.58646617,1084.848,-7776.672,827.2214927,-425.9666003,-117.488,-1056.747604,-4407.204192,-8328.941107,-40.27822581,284.9684308,-231.4047345,-755.3641015,59.70139745,64.76,59.93446289,66.52592232,-0.019200267,0,0.048925781,-0.105330184
100,0,1.3,2,35.33834586,939.024,-7954.736,933.4462876,-481.4198008,-135.344,-1110.290115,-4440,-8216,54,0,151,-25,59.7,64.78583147,59.94,66.39438313,-0.001397446,0.025831468,0.005537109,-0.131539198
100,0,1.3,2,36.09022556,764.976,-8167.264,1052.260336,-554.6897011,-156.656,-1162.158824,-4577.127336,-8041.432343,-5.111111111,-217.6858115,535.3916119,630.0717737,59.7,64.83,59.94,66.25943282,0,0.044168532,0,-0.134950308
100,0,1.3,2,36.84210526,619.152,-8345.328,1163.24959,-630.106401,-174.512,-1218.885022,-4775.008113,-7812.902906,-114.8888889,-401.9359026,910.0218841,1221.973772,59.7,64.83,59.94,66.16950569,0,0,0,-0.089927131
100,0,1.3,2,37.59398496,558,-8420,1246,-692,-182,-1287,-4876,-7492,-174,-519,1198,1634,59.7,64.83,59.94,66.08790015,0,0,0,-0.081605539
100,0,1.3,2,38.34586466,960,-8124,1296,-738,-179,-1381,-4806,-6848,-150,-570,1371,1844,59.7,64.83,59.94,66.00883821,0,0,0,-0.079061941
100,0,1.3,2,39.09774436,900.4615385,-8006.429644,1200.396969,-802.1219904,-202.9834337,-1448.273627,-3354.388981,-10291,1886.660572,-367.5001477,810.5,1658.049096,59.7,64.83,59.94,65.89384651,0,0,0,-0.114991697
100,0,1.3,2,39.84962406,816,-7958,1034,-866,-244,-1519,-914,-13734,4976,-23,250,1314,59.7,64.83,59.94,65.74401751,0,0,0,-0.149828999
100,0,1.3,2,40.60150376,765.4615385,-7989.25,885.2811742,-911.4522488,-281.9552914,-1619.318151,1328,-5616,6878,270,1851,940,59.65898438,64.86790534,59.94,65.54942265,-0.041015625,0.037905336,0,-0.194594864
100,0,1.3,2,41.35338346,719.0769231,-8058,726.5043409,-949.2058629,-323.2311787,-1743.147024,8121.18992,-2757.209233,-886,-323.5,1785.254324,669.5694638,59.64,64.91972906,59.94,65.44775915,-0.018984375,0.051823723,0,-0.101663493
100,0,1.3,2,42.10526316,685.1538462,-8126.75,563.9753372,-987.6065457,-361.1414767,-1888.402385,13360,-1618,-8650,-917,1603,535,59.64,64.9660798,59.94,65.41021652,0,0.04635074,0,-0.037542632
100,0,1.3,2,42.85714286,672,-8158,404,-1035,-389,-2053,6554.057649,-6301,-3116.41511,-396.5,-383.754324,2233.5,59.6155957,64.94152832,59.94,65.33533335,-0.024404297,-0.024551479,0,-0.074883171
100,0,1.3,2,43.60902256,958,-8068,248,-1103,-405,-2270,-2294,-10984,3442,124,-2254,3932,59.58,64.9,59.94,65.2542821,-0.035595703,-0.04152832,0,-0.081051252
100,0,1.3,2,44.36090226,912,-8188.318609,518,-1138.895522,-456.3422525,-2447.384417,-6078.057649,-10582.22741,5188.41511,-375.8817683,-857.6001928,3711,59.58,64.9,59.94,65.21214189,0,0,0,-0.042140211
100,0,1.3,2,45.11278195,866,-8490,788,-1155,-532,-2617,-7820,-9682,5910,-1086,699,3490,59.58,64.9,59.94,65.1362516,0,0,0,-0.075890282
100,0,1.3,2,45.86466165,1140,-9344,756,-1134,-614,-2802,-3518,-7948,-2120,-1424,896,3865,59.58,64.9,59.94,64.98715051,0,0,0,-0.149101094
100,0,1.3,2,46.61654135,1009.612072,-10301.62183,723.479432,-1226.510391,-807.5782534,-2882.801668,-1187.940393,-7758.499603,-2332.453361,-1042,140,4439.088521,59.58,64.9,59.91264401,64.92395444,0,0,-0.027355994,-0.06319607
100,0,1.3,2,47.36842105,646.3352549,-11357.66871,693.2952716,-1407.465226,-1054.844682,-2937.040749,-134,-7698,-2394,-660,-616,4807,59.58,64.9,59.88,64.9,0,0,-0.032644006,-0.02395444
100,0,1.3,2,48.12030075,92,-12598,680,-1532,-1177,-3015,-5894,-8534,4792,-777,-241,4048,59.58,64.9,59.88,64.9,0,0,0,0
100,0,1.3,2,48.87218045,-1444,-14262,916,-1565,-1068,-3181,-4295.925926,-8410.074074,3168,-844.4249663,-130.8566052,3563.18198,59.58,64.9,59.88,64.91320302,0,0,0,0.013203018
100,0,1.3,3,49.62406015,-134,-12482,878,-1361,-999,-3599,-1328.074074,-8179.925926,152,-895.0458165,-64.04493246,3181.980143,59.58,64.9,59.88,64.96481481,0,0,0,0.051611797
100,0,1.3,3,50.37593985,-202.7780899,-12580.05771,358.8745782,-1387.5,-1274.5,-3735.686573,270,-8056,-1472,-915,-20,2895,59.58,64.9,59.88,64.97,0,0,0,0.005185185
100,0,1.3,3,51.12781955,-370,-12830,-128,-1414,-1550,-3862,-174.9413496,-8087.62963,-1072.740741,-858.5126166,18.56291391,2672.091455,59.58,64.9,59.88,64.97157227,0,0,0,0.001572266
100,0,1.3,3,51.87969925,-1013.22191,-14100.94229,231,-1400,-1478.694336,-4196.677992,-1041.216033,-8146.37037,-331.2592593,-731.5807887,48.78145695,2492.738992,59.58,64.9,59.88,65.0775293,0,0,0,0.105957031
100,0,1.3,3,52.63157895,-1558,-15220,590,-1386,-1379,-4568,-1626,-8178,68,-598,61,2362,59.58,64.9,59.88,65.09539589,0,0,0,0.017866592
100,0,1.3,3,53.38345865,-919.9959759,-15105.42132,560,-1390.5,-1322.305664,-4846.226549,-1768,-7956,-744,-474,40,2281,59.58,64.9,59.88,65.04267861,0,0,0,-0.052717281
100,0,1.3,3,54.13533835,-90,-14802,530,-1395,-1294,-4992,-1786,-7698,-766,-232,28,2130,59.58,64.9,59.88,65.0445385,0,0,0,0.001859891
100,0,1.3,3,54.88721805,147.868122,-12749.57868,927,-1362.5,-1370.880597,-4984.5,-1995.580119,-7849.602071,-420.7653806,-130.7000786,41.5,1926.293658,59.58,64.90069815,59.88,65.06168508,0,0.000698148,0,0.017146584
100,0,1.3,3,55.63909774,430,-10886,1324,-1330,-1498,-4977,-2204,-8084,164,-66,55,1712,59.58,64.94999593,59.88,65.08934848,0,0.049297781,0,0.027663402
100,0,1.3,3,56.39097744,2949.423266,-11378.08651,821,-1396.258999,-1590.315634,-5056,-2221.9964,-8270.397929,777.7653806,-7.622047244,54.38461538,1526.164929,59.57756908,64.97,59.88,65.14166577,-0.002430921,0.020004071,0,0.052317282
100,0,1.3,3,57.14285714,5604,-11958,318,-1493,-1696,-5135,-2234,-8374,1152,22,53,1352,59.55676601,64.97,59.88,65.25435466,-0.020803072,0,0,0.112688891
100,0,1.3,3,57.89473684,6252.511859,-12113.32769,803.4329339,-1549.994904,-1837.394001,-4984.022434,-2254.595025,-8345.481481,1043.111111,3.074074074,49.20512821,1181.381471,59.53095417,64.97,59.88,65.10334181,-0.025811837,0,0,-0.151012849
100,0,1.3,3,58.64661654,6678.700374,-12217.77495,1798.643646,-1597.902695,-2019.75573,-4598.155979,-2276.07529,-8292.518519,840.8888889,-32.07407407,43.76923077,1017.482103,59.52067383,64.97078613,59.87794239,64.87675599,-0.010280342,0.000786133,-0.002057613,-0.226585817
100,0,1.3,3,59.39849624,6832,-12256,2612,-1635,-2262,-4078,-2286,-8264,732,-51,41,872,59.56608398,65.02376465,59.83555556,64.78073509,0.045410156,0.052978516,-0.042386831,-0.096020902
100,0,1.3,3,60.15037594,4832,-8778,3004,-1660,-2684,-3142,-2020,-8382,804,-16,55,737.9031853,59.58,65.04,59.82,64.76765625,0.013916016,0.016235352,-0.015555556,-0.01307884
100,0,1.3,4,60.90225564,4128.296306,-4770.531058,1917.513834,-1604.711723,-2573.411703,-2325.180723,-1754,-8500,876,19,69,642,59.58,65.04,59.82,64.82029297,0,0,0,0.052636719
100,0,1.3,4,61.65413534,3694.831209,-857.4877511,-231.6389984,-1460.312334,-2280.823406,-1611.590361,-1795,-8490.147368,570,16,68.7375,591.0032895,59.58,65.04,59.82,64.87375,0,0,0,0.053457031
100,0,1.3,4,62.40601504,3154,904,-1778,-1259,-1865,-1306,-1836,-8464,264,13,68,568,59.58,65.04078613,59.82,64.89464278,0,0.000786133,0,0.020892784
100,0,1.3,4,63.15789474,2214.915147,37.23380567,-2411.453063,-806.3174815,-774.2540752,-1520,-1545,-8283.852632,327.2379936,42.81299213,61.97391479,578,59.58,65.09376465,59.82,64.78920822,0,0.052978516,0,-0.105434561
100,0,1.3,4,63.90977444,1228,-1316,-2700,-266,382,-1734,-1254,-8120,476,78,49,588,59.58,65.11,59.82,64.79816079,0,0.016235352,0,0.008952568
100,0,1.3,4,64.66165414,315.989228,-2425.233806,-560,109.5892416,919.6057306,-1145.104911,-1394,-8340,812,85,22,541,59.58,65.11,59.82,64.95901366,0,0,0,0.160852868
100,0,1.3,4,65.41353383,-188,-3048,1580,388,1180,-209,-1536.358744,-8421.218884,820.0622499,71.33333333,45,557.5,59.58,65.1671989,59.85,65.06208753,0,0.057198897,0.03,0.103073876
100,0,1.3,4,66.16541353,84.75798909,-3037.305732,1287.171324,536.9872611,1199.586001,432.5177879,-1616,-8454,828,53,68,574,59.57940159,65.2653608,59.87982788,65.10939758,-0.000598412,0.098161902,0.029827881,0.047310049
100,0,1.3,4,66.91729323,574,-3002,688,676,1216,1066,-1204,-8278,1052,46,62,541,59.53714635,65.30357064,59.86360474,65.05261658,-0.042255241,0.038209841,-0.016223145,-0.056781006
100,0,1.3,4,67.66917293,1060,-2442,-186,901,1267,1781,-1278,-7970,1400,-21,61,597,59.529375,65.36014599,59.83639526,64.95738342,-0.007771346,0.056575345,-0.027209473,-0.095233154
100,0,1.3,4,68.42105263,1590.176843,-2565,-607.9083017,1118.644619,1366.028756,2418.174955,-1258.058309,-7974.075184,1387.138393,-81.67740551,61.02554089,643.2467309,59.57742188,65.45628155,59.82017212,64.90060242,0.048046875,0.096135569,-0.016223145,-0.056781006
100,0,1.3,4,69.17293233,1894,-2688,-792,1310,1442,2947,-1206.629738,-7985.815238,1352.692601,-140.1881768,61.11234718,682.8575389,59.58,65.50842186,59.82,64.97616935,0.002578125,0.052140309,-0.000172119,0.07556693
100,0,1.3,4,69.92481203,1460,-2610,-466,1450,1452,3306,-1136.309038,-8004.491917,1302.871172,-196.6396705,61.27569431,719.3360602,59.58,65.54891496,59.82,65.04,0,0.040493099,0,0.063830653
100,0,1.3,4,70.67669173,1428,-3254,-198,1594,1385,3887,-1059.690962,-8029.376978,1243.882651,-251.1392431,61.53085772,756.1859308,59.58,65.59734839,59.82,65.04,0,0.048433426,0,0
100,0,1.3,4,71.42857143,1304,-3526,-200,1668,1266,4284,-989.3702624,-8059.742176,1181.935585,-303.7942512,61.89311285,796.9107869,59.58,65.61,59.82,65.05019886,0,0.012651612,0,0.010198863
100,0,1.3,4,72.18045113,1187.45666,-3937.117223,-465.5795501,1769.626274,1095.162404,4761.689989,-937.941691,-8094.859264,1123.238519,-354.7120513,62.37773513,845.0142646,59.58,65.61,59.82,65.10071352,0,0,0,0.050514656
100,0,1.3,4,72.93233083,1124,-4370,-844,1882,919,5260,-918,-8134,1074,-404,63,904,59.58,65.67351064,59.82,65.15348745,0,0.063510638,0,0.052773928
100,0,1.3,4,73.68421053,1205,-4715.081261,-1047.773571,1991.861037,757.5127366,5732.116385,-1328,-8228.227453,1023.390068,-448.6814321,119.6740445,1000.138653,59.58,65.77030068,59.81913834,65.17958991,0,0.096790037,-0.000861658,0.026102461
100,0,1.3,4,74.43609023,1286,-5018,-1200,2097,658,6182,-1738,-8302,994,-494,176,1103,59.58,65.80548398,59.79386804,65.16701316,0,0.035183303,-0.025270304,-0.012576743
100,0,1.3,4,75.18796992,1263.614796,-5277.598115,-1302.733488,2194.196926,636.7734098,6614.753441,-1702.455625,-8203.808187,995.124183,-551.1332209,171.8518519,1178.318711,59.58,65.8894994,59.74859571,65.1423208,0,0.084015423,-0.045272325,-0.024692368
100,0,1.3,4,75.93984962,1213.674036,-5513.03759,-1384.464943,2285.301452,623.5533716,7026.851078,-1618.466805,-8018.949708,998.9150327,-612.8554993,164.1481481,1243.610666,59.58,66.0425148,59.70368683,65.11291486,0,0.1530154,-0.044908884,-0.029405936
100,0,1.3,4,76.69172932,1162,-5756,-1484,2363,619,7378,-1520,-7912,1006,-664,160,1295,59.58,66.08892499,59.66022795,65.06613749,0,0.04641019,-0.043458876,-0.046777374
100,0,1.3,4,77.44360902,1116,-6022,-1636,2422,727,7642,-1400,-7904,1082,-698,186,1330,59.58,66.12447966,59.64,65.04,0,0.03555467,-0.020227953,-0.026137487
100,0,1.3,4,78.19548872,900.994985,-6562.805461,-1633.259896,2465.915651,996.3896845,7905.781999,-1547,-7982,991.8844492,-745.4493592,191.8093706,1387.102093,59.58,66.17512792,59.64,65.04,0,0.050648258,0,0
100,0,1.3,4,78.94736842,564.4974925,-7324.457997,-1625.630903,2502.013381,1421.487805,8161.801655,-1694,-8060,900,-808,199,1456,59.59391602,66.227264,59.6301123,65.05623535,0.013916016,0.052136077,-0.009887695,0.016235352
100,0,1.3,4,79.69924812,360,-8088,-1614,2517,1891,8372,-1374,-7710,898,-901,356,1527,59.63932617,66.2694873,59.58396973,65.10921387,0.045410156,0.042223307,-0.046142578,0.052978516
100,0,1.3,4,80.45112782,314.5,-8786.789036,-1585.200648,2487.949749,2442.021747,8541.490798,-1682,-7920,1030,-950,330,1595,59.64,66.25506208,59.53794434,65.11,0.000673828,-0.014425224,-0.046025391,0.000786133
100,0,1.3,4,81.20300752,296,-9476,-1520,2423,2961,8652,-1768.289776,-7945.65842,1134.732694,-1018.047502,338.6406406,1657.227823,59.64,66.21131787,59.52,65.11335779,0,-0.043744207,-0.017944336,0.00335779
100,0,1.3,4,81.95488722,710.5090312,-10126.03042,-1060.540132,2298.927696,3366.133531,8701.659544,-1821.700444,-7959.718099,1222.921902,-1098.588684,356.1701702,1716.508278,59.64,66.15167973,59.52,65.15535884,0,-0.059638146,0,0.04200105
100,0,1.3,4,82.70676692,1428,-10780,-490,2119,3576,8723,-1840,-7964,1260,-1179,370,1775,59.64371483,66.07504768,59.50608398,65.20891945,0.003714834,-0.076632043,-0.013916016,0.053560607
100,0,1.3,4,83.45864662,2107.34472,-11473.83838,-223.0571833,1895.772268,3533.310968,8708.797153,-1712,-7544,998,-1255,376,1833,59.66592036,65.93637996,59.46067383,65.25935854,0.022205526,-0.138667727,-0.045410156,0.050439093
100,0,1.3,4,84.21052632,2732,-12202,-50,1656,3432,8671,-1542,-8176,420,-1315,491,1947,59.69113115,65.80396279,59.46,65.26,0.025210786,-0.132417165,-0.000673828,0.00064146
100,0,1.3,4,84.96240602,3202.567799,-13114.28651,32.71261774,1440.453736,3174.624995,8469.048679,-1583.875,-8612.347861,627.1875,-1329.763174,639.2144135,2073.981016,59.7,65.76,59.45505394,65.26,0.008868854,-0.043962792,-0.004946061,0
100,0,1.3,4,85.71428571,3534,-13784,116,1249,2801,8161,-1676,-8952.169608,1083,-1335.871701,809.1118974,2210.290036,59.7,65.76,59.4084022,65.26,0,0,-0.04665174,0
100,0,1.3,4,86.46616541,3694,-13956,310,1101,2418,7898,-1768.125,-9329.406552,1538.8125,-1343.044377,962.2034327,2320.954038,59.7,65.78000407,59.40494606,65.27731122,0,0.020004071,-0.003456137,0.017311215
100,0,1.3,4,87.21804511,3747.145455,-13500.719,476.2880936,909.1830387,1943.213576,7557.732919,-1810,-9878,1746,-1361,1060,2371,59.7,65.82930185,59.42735599,65.35574598,0,0.049297781,0.022409933,0.078434765
100,0,1.3,4,87.96992481,3768,-12640,564,716,1424,7101,-912,-11004,762,-1573,1101,2376,59.72473031,65.80114797,59.4515978,65.44059231,0.024730307,-0.028153877,0.024241807,0.084846326
100,0,1.3,4,88.72180451,3526,-11644,278,564,893,6337,-935.3333333,-10820.96296,585.6172792,-1678.741122,1060.555556,2504.690085,59.76779157,65.75184835,59.45971968,65.46967296,0.043061266,-0.049299622,0.008121878,0.029080654
100,0,1.3,4,89.47368421,3560.519778,-10178.38478,-60.54660506,638,466.3262659,5444.578651,-978.6666667,-10481.03704,488.0840019,-1754.061834,985.4444444,2781.974984,59.81114594,65.711592,59.45129088,65.45983936,0.043354366,-0.040256351,-0.0084288,-0.0098336
100,0,1.3,4,90.22556391,3638,-9164,-260,712,76,4449,-1002,-10298,432,-1832,945,3070,59.82,65.66076199,59.43537408,65.44126976,0.008854061,-0.050830016,-0.0159168,-0.0185696
100,0,1.3,4,90.97744361,3847.816692,-9005.33672,2.888888889,699.9400816,-361.4933823,3315.199757,-686,-10438.31068,388.0434783,-1924.386472,1052,3330.115657,59.82,65.61063356,59.41772928,65.42068416,0,-0.050128425,-0.0176448,-0.0205856
100,0,1.3,4,91.72932331,4147.463901,-8908.66836,491.1111111,665.2134965,-789.9710095,2088.991966,-370,-10830,368,-2020,1159,3597,59.82,65.65746094,59.40411648,65.40480256,0,0.046827376,-0.0136128,-0.0158816
100,0,1.3,4,92.48120301,4300,-8876,754,610,-1071,910,-520,-12576,922,-2119,1142,3856,59.82,65.69,59.4,65.4020795,0,0.032539062,-0.00411648,-0.002723062
100,0,1.3,4,93.23308271,4040,-9094,427.3960784,335.7338052,-1218.290095,-216.0333525,-292.651011,-14579.76861,1931.595873,-2263.657708,1157.38481,4050.001461,59.82,65.69,59.4,65.44951412,0,0,0,0.047434625
100,0,1.3,4,93.98496241,3780,-9312,2,-9,-1285,-1197,150,-15748,2614,-2355,1201,4279,59.83391602,65.67828125,59.38285365,65.50066477,0.013916016,-0.01171875,-0.017146346,0.051150651
100,0,1.3,4,94.73684211,4141,-8628,-108.8370286,-147.3289629,-1278.321213,-2071.17738,708,-15292,1824,-2253,1411,4753,59.87932617,65.61649148,59.34059841,65.5395368,0.045410156,-0.061789773,-0.042255241,0.038872025
100,0,1.3,4,95.4887218,4502,-7944,-266,-317,-1258,-2536,877.1453674,-15870,1713.992779,-2216.384834,1528.319585,5152.867707,59.88,65.52395626,59.34,65.49847168,0.000673828,-0.092535215,-0.000598412,-0.041065119
100,0,1.3,4,96.2406015,-4778,-32768,-4582,-978,-1109,-1633,942,-16448,1624,-2197,1628,5413,59.88131895,65.45948097,59.34,65.47645996,0.00131895,-0.06447529,0,-0.022011719
100,0,1.3,4,96.9924812,44,-10554,4744,63,355,-3229,343.7824861,-15657.55678,1248.441648,-2188.65812,1749.110062,5492.447572,59.89960716,65.42926726,59.34,65.53354004,0.018288215,-0.030213712,0,0.057080078
100,0,1.3,4,97.7443609,6220,-2798,4668,316,-670,-3215,-852,-14488,950,-2181,1864,5556,59.92522288,65.40857121,59.34,65.54,0.025615713,-0.020696047,0,0.006459961
100,0,1.3,4,98.4962406,-1632.589831,-3219,1491.699185,-104.1767936,-1365.3592,-2228.771186,-2480,-13846,1286,-2165,1954,5658,59.93984734,65.40007531,59.34,65.54,0.014624466,-0.008495905,0,0
100,0,1.3,4,99.2481203,-10826,-3640,-4372,-643,-1704,-1255,-6693.828838,-15539,1868.537207,-2188.5,2123.136516,5635.258227,59.94,65.43808467,59.3044043,65.58152832,0.000152656,0.038009366,-0.035595703,0.04152832
100,0,1.3,4,100,-12558,-2020,-11052,-812,-769,-2208,-9826,-17232,2388,-2212,2381,5572,59.94,65.46771722,59.28,65.60422959,0,0.029632547,-0.024404297,0.022701275
100,0,1.3,1,0,-2470,-12120,-7156,6,1546,-2788,-8285.538462,-15170.47588,2557.630445,-2150.159664,2881.541472,5114.456589,59.94,65.40161955,59.28,65.54980256,0,-0.066097672,0,-0.05442703
100,0,1.3,1,0.826446281,794,-13698,-1790,616,708,-3395,-5114,-11486,2764,-1989,3374,4169,59.94,65.2865477,59.28,65.55577427,0,-0.115071852,0,0.005971701
100,0,1.3,1,1.652892562,7672,-11112,8848,1066,-301,-4048,-402,-7864,3966,-1459,3584,2392,59.94,65.18,59.28,65.61,0,-0.106547696,0,0.054225735
100,0,1.3,1,2.479338843,5471.407407,-9600.78667,5870.148148,605.037037,-161.5985759,-4504.703033,-660.9793689,-4122.513618,1408.470719,-937.5673313,2716.089027,1587.994438,59.94,65.1062014,59.28,65.65504137,0,-0.073798603,0,0.045041367
100,0,1.3,1,3.305785124,1384.592593,-8458.031905,339.8518519,-251.037037,108.691737,-4871.573739,-1188,-578,-1734,-454,1261,1244,59.94,65.01872971,59.28,65.70855605,0,-0.087471686,0,0.053514684
100,0,1.3,1,4.132231405,-816,-7724,-2638,-712,288,-5022,-2165.020631,3144.33946,-2762.470719,-37.07112638,-206.3305699,1286,59.94,64.88409512,59.28,65.79139415,0,-0.134634591,0,0.082838094
100,0,1.3,1,4.958677686,2654,-7352,-2090,-387,328,-4968,-2874,5248,-3206,334,-1114,1328,59.94,64.75201814,59.28,65.87307973,0,-0.132076978,0,0.081685588
100,0,1.3,1,5.785123967,2894.585237,-7542.127013,573.2229291,-481,88.5,-4449.04024,-2160.518519,4241.622979,-1961.037037,658.9756929,-1158.940961,897.8334578,59.94,64.63044816,59.28,65.91,0,-0.121569977,0,0.036920266
100,0,1.3,1,6.611570248,2968,-7856,2818,-575,-151,-3836,-835.4814815,2105.912625,351.037037,957.527719,-1184.748258,-83.88864002,59.94,64.53224694,59.31785874,65.91,0,-0.098201226,0.037858742,0
100,0,1.3,1,7.438016529,2198,-8100,1156,-539,-116,-3638,-122,166,1596,1265,-1193,-1154,59.93446289,64.4619873,59.34,65.92422081,-0.005537109,-0.070259634,0.022141258,0.014220812
100,0,1.3,1,8.26446281,1948,-8476,-358,-393,-42,-3379,-992,-1080,1024,1599,-603,-2238,59.88553711,64.41379395,59.34,66.07401205,-0.048925781,-0.048193359,0,0.149791236
100,0,1.3,1,9.090909091,2308,-7942,-62,-328,-11,-3208,-1060.131838,-1663.103348,575.8614345,1888.281139,-295.3962783,-2996.840338,59.88,64.41,59.34,66.15297466,-0.005537109,-0.003793945,0,0.078962612
100,0,1.3,2,9.917355372,3468,-7732,750,-312,-27,-2871,-1092,-2018,138,2153,-145,-3645,59.88,64.41,59.34,66.2,0,0,0,0.04702534
100,0,1.3,2,10.74380165,3198.425,-7870,683.293704,-289.14909,-67.79192547,-2465.900726,-1124.108108,-2238.698734,-472.451661,2400.259884,-119.3711968,-4335.850601,59.88,64.41,59.34,66.28415751,0,0,0,0.084157505
100,0,1.3,2,11.57024793,2812,-8116,540,-259,-98,-2098,-1140,-2380,-938,2632,-110,-4862,59.88,64.40673929,59.34,66.37534904,0,-0.003260706,0,0.09119153
100,0,1.3,2,12.39669421,2622,-8356,298,-215,-80,-1865,-1048,-2456,-1068,2848,-180,-5097,59.88,64.36193867,59.34,66.45955138,0,-0.044800623,0,0.08420234
100,0,1.3,2,13.2231405,2496,-8096,236,-139,-68,-1501,-1245,-2888.435563,-1032.796117,3030.43833,-134,-5431.653075,59.88,64.30077608,59.3155957,66.58937359,0,-0.06116259,-0.024404297,0.129822213
100,0,1.3,2,14.04958678,2768,-8300,272,-100,-80,-1293,-1442,-3654,-956,3189,-88,-5812,59.88,64.27,59.28,66.73033405,0,-0.03077608,-0.035595703,0.140960462
100,0,1.3,2,14.87603306,2688,-8234,640,-55,-84,-994,-1366,-4716,-820,3319,-102,-6190,59.88,64.27,59.28,66.81413897,0,0,0,0.083804919
100,0,1.3,2,15.70247934,2396.090473,-8255.875,599.0625,-45.40016783,-90.9068031,-820.7639628,-1434,-5639.149681,-854.345679,3431.152857,-125.7886179,-6450.540552,59.88,64.27,59.28,66.90133768,0,0,0,0.087198706
100,0,1.3,2,16.52892562,1883.952707,-8304,509,-40.2481487,-99.88938053,-675.3457447,-1502,-6410,-924,3527,-166,-6659,59.88,64.27,59.28,67.01019451,0,0,0,0.108856835
100,0,1.3,2,17.3553719,1340.838588,-8352.125,418.9375,-36.22205522,-107.6772677,-575.2546543,-1481,-7017.88324,-1021.584228,3606.477201,-269.5615165,-6841.007549,59.88,64.27,59.29298277,67.02,0,0,0.012982773,0.009805488
100,0,1.3,2,18.18181818,956,-8374,378,-30,-111,-538,-1460,-7464,-1144,3669,-430,-6987,59.88,64.27,59.34,67.02,0,0,0.047017227,0
100,0,1.3,2,19.00826446,713.3554693,-8297.496842,473.9259259,-16.66192657,-110.2222222,-544.3090677,-1460,-7714,-1274,3710,-637,-7087,59.88,64.22583147,59.45026448,66.9653125,0,-0.044168532,0.110264481,-0.0546875
100,0,1.3,2,19.83471074,516.8999569,-8144.54924,652.0740741,-0.719852173,-108.7777778,-562.1736909,-1569.6875,-8015.681154,-1245.236097,3709.766304,-889.7870745,-7176.301837,59.88,64.2039202,59.55375548,66.95120293,0,-0.021911267,0.103491001,-0.014109569
100,0,1.3,2,20.66115702,436,-8030,748,7,-108,-590,-1811,-8352.891678,-1171.629591,3709.043478,-1172.388648,-7263.304337,59.88,64.25027094,59.62432409,67.01340525,0,0.04635074,0.070568611,0.06220232
100,0,1.3,2,21.48760331,468,-7988,660,-12,-120,-674,-2052.3125,-8720.656364,-1072.20829,3707.798913,-1447.295897,-7331.404669,59.88,64.29612693,59.66737224,66.98006523,0,0.045855987,0.043048147,-0.033340025
100,0,1.3,2,22.31404959,557.5431593,-7972.338565,928.4383562,-22.85476559,-121.0620655,-733.3320278,-2162,-9114,-966,3706,-1677,-7364,59.88,64.34,59.7,66.87,0,0.043873072,0.03262776,-0.110065227
100,0,1.3,2,23.14049587,634,-7966,1212,-36,-122,-783,-2126,-9630.573901,-812.2698914,3695.791694,-1849.626516,-7371.827138,59.88,64.37609963,59.74613083,66.76962222,0,0.036099631,0.046130827,-0.10037778
100,0,1.3,2,23.96694215,643.0862594,-8210,1235.561644,-84.44026143,-130.9473684,-823.6050132,-2090,-10038,-682,3674,-2001,-7375,59.87446289,64.44186062,59.76,66.69421947,-0.005537109,0.065760987,0.013869173,-0.075402747
100,0,1.3,2,24.79338843,654,-8454,1244,-145,-139,-870,-2146,-10164,-644,3627,-2146,-7366,59.82553711,64.60350029,59.76,66.63231332,-0.048925781,0.161639669,0,-0.061906149
100,0,1.3,2,25.61983471,924,-7828,1096,-183,-130,-956,-2142.197531,-10319.73602,-544.3279387,3573.387476,-2228.199157,-7345.759976,59.82,64.59152832,59.76,66.58599926,-0.005537109,-0.011971967,0,-0.046314067
100,0,1.3,2,26.44628099,1128,-7836,964,-205,-113,-1087,-2132,-10506,-470,3515,-2271,-7308,59.82,64.55062414,59.76119682,66.57,0,-0.040904178,0.001196825,-0.015999256
100,0,1.3,2,27.27272727,1296,-8284,854,-225,-135,-1164,-2077.781888,-10786.25617,-497.6753156,3453.323915,-2278.147482,-7193.295511,59.82,64.59647462,59.84570731,66.57,0,0.04585048,0.084510482,0
100,0,1.3,2,28.09917355,1237,-7994,876.456247,-255.8409824,-154.5552147,-1200.96988,-1984,-11010,-560,3385,-2285,-7029,59.82,64.60350029,59.8715978,66.53919194,0,0.007025664,0.025890495,-0.03080806
100,0,1.3,2,28.92561983,1178,-7704,944,-309,-165,-1240,-1870,-11070,-682,3303,-2313,-6875,59.82,64.44186062,59.82494606,66.36813556,0,-0.161639669,-0.04665174,-0.171056381
100,0,1.3,2,29.75206612,1376,-9470,1402,-465,-119,-1335,-1645.337838,-11176.93173,-711.3367347,3121.629508,-2437.389611,-6626.920721,59.82,64.36890439,59.82,66.40694336,0,-0.072956227,-0.004946061,0.038807801
100,0,1.3,2,30.5785124,712,-8438,984,-398,-211,-1290,-1490,-11344,-722,2864,-2637,-6298,59.82,64.34,59.82059841,66.48630979,0,-0.028904391,0.000598412,0.079366431
100,0,1.3,2,31.40495868,1160,-8268,716,-495,-170,-1413,-1715.122816,-11766.06287,-617.027972,2549.861825,-2872.932207,-5891.872562,59.82,64.37790534,59.86285365,66.2257358,0,0.037905336,0.042255241,-0.260573987
100,0,1.3,2,32.23140496,1360,-7786,908,-476,-162,-1487,-2104,-12088,-450,2188,-3125,-5369,59.814138,64.42528371,59.88,66.12,-0.005861999,0.047378374,0.017146346,-0.105735803
100,0,1.3,2,33.05785124,1373.792899,-8062,882,-523.9179894,-205.7744565,-1547.787354,-2450,-11754,-334,1805,-3340,-4618,59.77212701,64.46351314,59.88,66.12,-0.042010991,0.03822943,0,0
100,0,1.3,2,33.88429752,1378,-8338,856,-594,-251,-1598,-3040,-11196,-314,1570,-3400,-3982,59.72930999,64.55086899,59.88,66.2135498,-0.042817016,0.087355852,0,0.093549805
100,0,1.3,2,34.7107438,1375,-8173.005909,1022,-629.9040945,-252.406955,-1631.000573,-3968,-10402,194,1192,-3191,-2951,59.7,64.69,59.88,66.35,-0.029309994,0.139131008,0,0.136450195
100,0,1.3,2,35.53719008,1372,-7912,1188,-665,-254,-1669,-4688,-9936,698,873,-2886,-2135,59.7,64.85145789,59.88,66.35,0,0.161457895,0,0
100,0,1.3,2,36.36363636,1568,-7734,826,-716,-315,-1758,-5713.748847,-10116.37883,818.3482403,480.5456063,-2128.973477,-1068.083965,59.7,64.9,59.88,66.3422739,0,0.048542105,0,-0.007726104
100,0,1.3,2,37.19008264,1878.20894,-7844.081776,645.5305052,-759.2621951,-339.2442146,-1873.050556,-6804.429979,-10588.31322,878.9263657,87.05058091,-1146.542294,124.9663621,59.7,64.9,59.88,66.2831842,0,0,0,-0.059089691
100,0,1.3,2,38.01652893,2110,-8004,566,-782,-367,-1968,-7312,-11248,1010,-92,-659,1180,59.7,64.92847168,59.90240356,66.20788717,0,0.02847168,0.02240356,-0.075297031
100,0,1.3,2,38.84297521,2145.598584,-8065.961687,841.5891089,-775.6494334,-522.9022478,-2007.833408,-6570.474826,-13074.74048,2382.181674,8.842429401,-1108,1977.621987,59.7,64.9698219,59.94249845,66.10933793,0,0.041350221,0.040094892,-0.098549242
100,0,1.3,2,39.66942149,2186,-8162,1282,-761,-712,-2043,-5248,-14542,4812,233,-1557,2723,59.7,64.95276002,59.96770354,65.97420894,0,-0.017061877,0.025205088,-0.13512899
100,0,1.3,2,40.49586777,2578,-9832,1592,-730,-799,-2099,-3956,-7120,7642,654,-379,3535,59.7,64.92287503,59.98886843,65.82259522,0,-0.029884999,0.021164887,-0.151613723
100,0,1.3,2,41.32231405,1279,-10038.89511,1174.615804,-806.3387622,-806.6239946,-2067,2168.258843,-7255.016777,3485,176.9199067,891.0783546,2822.5,59.7,64.90153877,59.99964849,65.7049947,0,-0.021336251,0.010780065,-0.117600519
100,0,1.3,2,42.14876033,-20,-10106,482,-919,-809,-2035,7310,-7576,-672,-413,1616,2110,59.6755957,64.9,60,65.64779468,-0.024404297,-0.001538775,0.000351508,-0.057200016
100,0,1.3,2,42.97520661,424,-9420,-201.6158038,-992.9135314,-768.5,-2183.067676,6327.816694,-8779.8961,-647.3820072,-619.0798341,787.1481481,2638.586123,59.64,64.89930185,60,65.60547867,-0.035595703,-0.000698148,0,-0.042316019
100,0,1.3,2,43.80165289,868,-8734,-610,-1037,-728,-2434,3835.411167,-10626.05916,-558.3195699,-765.3732504,-752.1481481,3674.061135,59.64,64.85000407,60,65.5613953,0,-0.049297781,0,-0.044083361
100,0,1.3,2,44.62809917,524,-8930,-438,-1045,-776,-2645,514,-11582,-382,-821,-1581,4391,59.6315978,64.83,60,65.52052246,-0.008402198,-0.020004071,0,-0.040872847
100,0,1.3,2,45.45454545,158,-9284,-418,-1073,-781,-2771,-5258,-9798,6542,-582,-797,4586,59.58494606,64.83,60,65.48034631,-0.04665174,0,0,-0.04017615
100,0,1.3,2,46.28099174,228,-9554,-16,-1162,-677,-3044,-7152,-11222,6864,-963,753,4130,59.58,64.85847168,60,65.41444202,-0.004946061,0.02847168,0,-0.065904287
100,0,1.3,2,47.10743802,123.2572329,-10029.02572,266.2232997,-1228.243782,-620.2140788,-3341.071456,-5693.407407,-10234.22222,4162,-1069.521657,332.4814815,4551.037037,59.58,64.9,60,65.31905779,0,0.04152832,0,-0.095384229
100,0,1.3,2,47.9338843,-112.5966453,-10690.11824,508.1214107,-1283.041023,-578.3292616,-3647.80145,-2984.592593,-8399.777778,-856,-1135.427495,-448.4814815,5332.962963,59.58,64.9,60,65.17433776,0,0,0,-0.144720034
100,0,1.3,2,48.76033058,-362,-11456,822,-1312,-562,-3935,-1526,-7412,-3558,-1158,-869,5754,59.58,64.9,60,65.06361194,0,0,0,-0.11072582
100,0,1.3,2,49.58677686,-583.9683135,-12625.8595,1485.172171,-1321.922639,-700.2898053,-4182.467322,-5004,-8586,3488,-1152,-282,5167,59.58,64.9,60,64.98603629,0,0,0,-0.077575648
100,0,1.3,2,50.41322314,-822.6093726,-13969.59641,2311.03053,-1328.57243,-973.9129439,-4413.910532,-3955.066196,-7954,1527,-1356,26.67894243,4520.52373,59.58,64.9,59.97264401,64.88770405,0,0,-0.027355994,-0.098332238
100,0,1.3,3,51.23966942,-1088,-14612,2716,-1331,-1171,-4666,-2852,-7322,-434,-1560,165,4042,59.58,64.90069815,59.94,64.83045234,0,0.000698148,-0.032644006,-0.057251707
100,0,1.3,3,52.0661157,-1488.531088,-14096.32681,1835.959271,-1263.239454,-1229.703454,-4980.039502,-2767.933804,-7491.04401,-337.1343284,-1282.89485,46,3883.14484,59.58,64.94999593,59.94,64.87030181,0,0.049297781,0,0.03984947
100,0,1.3,3,52.89256198,-1748,-13208,662,-1166,-1289,-5284,-2738,-7798,-114,-1004,-73,3737,59.58,64.97,59.94,64.94340062,0,0.020004071,0,0.073098808
100,0,1.3,3,53.71900826,-770,-12424,224,-1118,-1441,-5507,-3248,-8114,356,-1002,68,3419,59.58,64.97,59.94,65.03582548,0,0,0,0.092424863
100,0,1.3,3,54.54545455,-376,-12798,532,-1061,-1744,-5622,-2922,-8042,-576,-891.9519076,69.55755712,3135.074836,59.58,64.93808467,59.94,65.04,0,-0.031915327,0,0.004174516
100,0,1.3,3,55.37190083,-382,-13130,674,-1062,-1854,-5775,-2596,-7970,-1508,-701,70,2852,59.58,64.90053748,59.94,65.04,0,-0.037547196,0,0
100,0,1.3,3,56.19834711,2103.700117,-14507.66066,866.8856813,-1139.534174,-1738.5,-6169.781304,-3169,-8066.734694,-1045.787913,-505.5515414,43,2540.317528,59.58,64.94373554,59.94,65.04,0,0.04319806,0,0
100,0,1.3,3,57.02479339,5506,-16132,1190,-1280,-1623,-6463,-3742,-8210,-382,-334,16,2215,59.58,64.99517671,59.94,65.04,0,0.051441172,0,0
100,0,1.3,3,57.85123967,7295.299883,-17133.27775,2556.570234,-1440.357233,-1862.780164,-6277.472131,-3447,-8289.722449,-56.79965728,-239.3792781,46.5,1866.71487,59.58,65.03820244,59.94,65.04,0,0.043025733,0,0
100,0,1.3,3,58.67768595,8168,-17634,4084,-1588,-2296,-5856,-3152,-8362,246,-161,77,1542,59.58,65.04,59.94,65.04,0,0.001797558,0,0
100,0,1.3,3,59.50413223,6157.48846,-15382.89173,4788.909531,-1690.055315,-2709.576755,-5039.009481,-3222,-8442,650,-77,45,1295,59.57932617,65.04,59.94,65.03820244,-0.000673828,0,0,-0.001797558
100,0,1.3,3,60.33057851,2326,-10916,5114,-1741,-3206,-3736,-2993.98044,-8043,748.2162993,-73.91682397,60.32142857,1086.105986,59.53391602,65.04,59.94,64.99517671,-0.045410156,0,0,-0.043025733
100,0,1.3,3,61.15702479,-2212,-4964,4500,-1648,-3873,-1703,-2582,-7644,784,-71,78,919,59.53251781,65.05460411,59.94,64.94373554,-0.001398206,0.014604112,0,-0.051441172
100,0,1.3,4,61.98347107,1836,116,2008,-1903,-3447,-865,-2164,-8248,424,-34,81,811,59.57770405,65.10732139,59.94,64.90053748,0.045186241,0.052717281,0,-0.04319806
100,0,1.3,4,62.80991736,2898,-2208,-2682,-1178,-1112,-2752,-1939.358866,-8212,473.0009823,25.91940582,88.48595506,744.12401,59.58,65.11,59.94,64.9,0.00229595,0.002678608,0,-0.000537477
100,0,1.3,4,63.63636364,2190.183941,-1851.777778,-2260.206045,-666.3757965,144.3664193,-2315.955003,-1838,-8176,590,65,94,704,59.58,65.11,59.94,64.90267861,0,0,0,0.002678608
100,0,1.3,4,64.46280992,783.2567715,-1190.222222,-1317.078757,-243.1416265,1065.504976,-1351.687784,-1872,-8392,868,51,50,690,59.58,65.11,59.94,64.95539589,0,0,0,0.052717281
100,0,1.3,4,65.2892562,-248,-834,-336,125,1567,-375,-1416,-7972,902,19,48,658,59.58,65.12460411,59.94,64.95376465,0,0.014604112,0,-0.00163124
100,0,1.3,4,66.11570248,-699.2902673,-1794,769.7318008,452.2737031,1780.213787,426.8712661,-1247.683168,-7975.342623,959.4791109,2.824190206,56.19367196,678.0951355,59.58,65.17732139,59.94,64.90078613,0,0.052717281,0,-0.052978516
100,0,1.3,4,66.94214876,-908,-2754,1456,728,1893,1281,-1121.940594,-7984.413661,1035.897486,-7.670083979,75.51645857,729.4203613,59.58,65.18,59.97264401,64.9,0,0.002678608,0.032644006,-0.000786133
100,0,1.3,4,67.76859504,216,-2736,630,946,1935,2281,-1043.227723,-7997.777869,1115.867118,-18.82931617,98.08101589,798.5354065,59.58,65.18,60,64.90179756,0,0,0.027355994,0.001797558
100,0,1.3,4,68.59504132,476,-2378,-32,1090,1899,2985,-1016,-8014,1184,-37,116,872,59.58,65.18,60,64.94482329,0,0,0,0.043025733
100,0,1.3,4,69.4214876,966,-1780,-856,1364,1890,3933,-1147.185185,-8053.261931,1247.223039,-83.85074782,130.0594442,969.7346781,59.57006158,65.20749603,60,64.99014499,-0.009938417,0.02749603,0,0.045321702
100,0,1.3,4,70.24793388,1362.778776,-1732.623675,-1091.148563,1620.006768,1829.597,4606.632759,-1390.814815,-8108.186521,1304.833742,-158.3957795,142.5852777,1087.807616,59.52616504,65.31856238,60,65.03445568,-0.043896544,0.111066354,0,0.044310691
100,0,1.3,4,71.07438017,1616,-1718,-1180,1833,1723,5173,-1522,-8136,1330,-233,148,1177,59.49972245,65.35129323,60,65.11360607,-0.026442593,0.03273085,0,0.079150388
100,0,1.3,4,71.90082645,1690,-2264,-1146,1971,1584,5682,-1379,-8087,1179,-300.0082887,141,1219.424242,59.47667931,65.36558497,59.99821757,65.19294181,-0.023043132,0.014291738,-0.001782427,0.079335739
100,0,1.3,4,72.72727273,1586.121739,-2907.062382,-1018.201599,2106.692297,1329.213179,6318.468656,-1236,-8038,1028,-364,134,1262,59.46211762,65.38367444,59.95755932,65.25215517,-0.014561697,0.018089465,-0.04065825,0.059213362
100,0,1.3,4,73.55371901,1426,-3554,-880,2209,1000,6972,-1363.555556,-8108.518519,1033.368502,-416.6959766,140.7905166,1351.776019,59.47391602,65.44412249,59.91371591,65.26,0.011798399,0.060448056,-0.043843415,0.007844828
100,0,1.3,4,74.38016529,1299.878261,-4103.520174,-813.0961538,2252.939755,635.6431823,7537.959847,-1600.444444,-8239.481481,1050.29256,-465.5770897,160.2476999,1471.563903,59.51932617,65.59641998,59.88039703,65.26,0.045410156,0.152297481,-0.033318879,0
100,0,1.3,4,75.20661157,1230,-4654,-782,2293,241,8079,-1728,-8310,1080,-525,191,1573,59.52,65.72267162,59.88,65.29808467,0.000673828,0.126251648,-0.00039703,0.038084673
100,0,1.3,4,76.03305785,1304,-5292,-1272,2364,-159,8619,-1392,-7966,1254,-613,290,1637,59.52154076,65.86241676,59.87589758,65.32699219,0.001540764,0.139745139,-0.004102418,0.028907514
100,0,1.3,4,76.85950413,1432,-5560,-1544,2439,-366,8947,-1509,-8039,1363.802452,-678.5484614,327.7303206,1712.573491,59.55841996,66.05561421,59.78958942,65.2709375,0.0368792,0.193197452,-0.086308166,-0.056054687
100,0,1.3,4,77.68595041,1324.006923,-5943.16968,-1798.003868,2550.872662,-452.7255614,9303.116099,-1626,-8112,1416,-748,355,1805,59.59860495,66.14804988,59.73573574,65.26,0.040184987,0.092435668,-0.053853677,-0.0109375
100,0,1.3,4,78.51239669,1090,-6408,-1936,2648,-489,9645,-1393,-7887,1390,-868.7060927,380.7697863,1935.27255,59.6363423,66.19244999,59.70355382,65.26,0.037737353,0.044400104,-0.032181915,0
100,0,1.3,4,79.33884298,547.9930769,-6929.043514,-1846.718579,2700.567308,-282.5042261,9974.013591,-1160,-7662,1364,-980,414,2087,59.67989379,66.40188263,59.65813817,65.26,0.043551483,0.209432642,-0.045415649,0
100,0,1.3,4,80.16528926,132,-7534,-1690,2725,133,10198,-1298.32,-7870.83818,1483.392,-1033.141258,534.6548954,2236.737452,59.7,66.58346169,59.64,65.26,0.020106213,0.181579061,-0.018138174,0
100,0,1.3,4,80.99173554,171.4663063,-8233.364271,-1570.452113,2709.141913,797.3606909,10288.59616,-1628.16,-8384.354541,1768.096,-1068.0843,756.0667574,2390.184595,59.7,66.63258461,59.64,65.26,0,0.049122921,0,0
100,0,1.3,4,81.81818182,289.1189189,-9015.12697,-1462.24552,2664.305739,1778.941787,10362.19568,-2021.84,-9033.051812,2107.904,-1097.656713,1004.951172,2548.263012,59.68608398,66.63002706,59.64,65.27623535,-0.013916016,-0.00255755,0,0.016235352
100,0,1.3,4,82.6446281,483.8383783,-9859.407533,-1336.41287,2594.598609,2814.542538,10416.99712,-2351.68,-9647.432722,2392.608,-1134.686084,1208.023724,2711.894286,59.64067383,66.57590992,59.64,65.32921387,-0.045410156,-0.054117136,0,0.052978516
100,0,1.3,4,83.47107438,754.5052251,-10746.3254,-1163.986813,2504.127652,3640.962193,10451.19904,-2490,-10058,2512,-1192,1292,2882,59.67264401,66.49716087,59.64,65.33,0.031970178,-0.078749053,0,0.000786133
100,0,1.3,4,84.29752066,1100,-11656,-916,2397,3995,10463,-1820.074074,-10310.07172,1748.222222,-1345.358272,1218.888889,3072.833217,59.7,66.40161922,59.63633983,65.33,0.027355994,-0.095541654,-0.003660174,0
100,0,1.3,4,85.12396694,2392.721205,-12628.58068,-8.28779689,2172.696443,4020.028325,10381.10149,-575.9259259,-10514.03586,329.7777778,-1566.22851,1083.111111,3273.455237,59.7,66.30707804,59.59530109,65.33,0,-0.094541177,-0.04103874,0
100,0,1.3,4,85.95041322,3954,-13648,938,1885,4030,10217,94,-10598,-434,-1711,1010,3447,59.68285365,66.22022708,59.56152674,65.3333159,-0.017146346,-0.086850958,-0.033774348,0.003315902
100,0,1.3,4,86.7768595,4670,-14666,1190,1655,3757,9992,-486,-10134,398,-1751,1047,3575,59.64059841,66.13129548,59.52917965,65.3514789,-0.042255241,-0.0889316,-0.032347084,0.018162994
100,0,1.3,4,87.60330579,5271.756964,-14615.26868,1169.777778,1425.084807,3310.218628,9477.895776,-830,-11212,66,-1941,1342,3879,59.66707252,65.9390391,59.49873398,65.38117015,0.026474105,-0.192256382,-0.030445678,0.029691252
100,0,1.3,4,88.42975207,5822.417446,-14453.87068,1132.222222,1213.097959,2759.594982,8699.934225,-134.4826267,-12210.11196,676.5072185,-2012.499429,1325,4220.642661,59.70472944,65.83,59.4746312,65.41746579,0.03765692,-0.109039098,-0.024102776,0.036295639
100,0,1.3,4,89.25619835,6382,-14168,1112,1120,2285,7861,840,-13218,1334,-2053,1308,4569,59.7230218,65.83,59.46131282,65.45544194,0.01829236,0,-0.013318377,0.037976155
100,0,1.3,4,90.08264463,6976,-12374,1268,1195,1962,6978,1391.280921,-14498.73833,1417.021521,-2081.922693,1318.292473,4903.765968,59.73804519,65.83,59.46,65.49449723,0.015023397,0,-0.001312824,0.039055293
100,0,1.3,4,90.90909091,7487.529254,-11027.66772,1239.857024,1180.964238,1354.30554,5383.494941,1901.686156,-16015.72062,1479.099211,-2107.39303,1344.99742,5236.280209,59.757512,65.83,59.46,65.54,0.019466811,0,0,0.045502766
100,0,1.3,4,91.73553719,7932.09796,-9917.61164,1169.047382,1141.817365,570.4075617,3310.104816,2329.85093,-17469.73374,1521.666141,-2127.70202,1381.85613,5562.011466,59.79216467,65.79760216,59.4268611,65.58273384,0.034652667,-0.032397844,-0.033138905,0.042733845
100,0,1.3,4,92.56198347,8122,-9456,1076,1082,-70,1438,2634.410469,-18561.56458,1546.15538,-2141.140673,1422.609893,5876.428482,59.83180588,65.74622648,59.39421252,65.62099981,0.039641205,-0.051375678,-0.032648573,0.038265963
100,0,1.3,4,93.38842975,8040.214646,-9484.556036,965.5103628,858.1116578,-523.5903841,-281.1801642,2774,-18992,1554,-2146,1461,6175,59.87222752,65.69906789,59.37606929,65.66051097,0.040421644,-0.047158585,-0.018143228,0.039511159
100,0,1.3,4,94.21487603,7789.095958,-9575.334294,784.3695756,421.11603,-902.8934068,-1855.645638,2810.829067,-18150.82265,1264,-1907.057851,1490.275384,6442.97719,59.88,65.69,59.36052333,65.69991504,0.007772479,-0.009067893,-0.015545969,0.039404074
100,0,1.3,4,95.04132231,7360,-9736,466,-83,-1122,-2545,2826,-16554,974,-1634,1540,6713,59.88,65.69,59.34865793,65.73336306,0,0,-0.011865395,0.033448014
100,0,1.3,4,95.8677686,744.7585236,-21301.54113,-3219.294129,-837.7534841,-1215.622807,-2317,-630,-14684,1274,-1591,1832,7029,59.88,65.69,59.34155642,65.75500604,0,0,-0.007101506,0.02164298
100,0,1.3,4,96.69421488,-5610,-32768,-6700,-1348,-1260,-2089,-4759.970536,-16252,2153.894138,-1698.074074,2167.989692,6984.802994,59.88494606,65.69,59.34,65.76,0.004946061,0,-0.001556424,0.004993965
100,0,1.3,4,97.52066116,-2046,-15493,-2301,-393,-1269.470199,-3198.5,-8852.540823,-19164,3510.6135,-1896.925926,2544.819659,6856.161543,59.9315978,65.69,59.34,65.76,0.04665174,0,0,0
100,0,1.3,4,98.34710744,1518,1782,2098,562,-1273,-4308,-10706,-20732,4720,-2004,2991,6649,59.94,65.6671382,59.34,65.78352538,0.008402198,-0.022861795,0,0.023525377
100,0,1.3,4,99.17355372,-6169,-1677.308441,-5838,-533,-850.0012308,-3712,-7689.01962,-17884.53413,5510.929615,-1972.263895,3575.785669,5744.355427,59.94,65.61079788,59.34,65.82937586,0,-0.056340322,0,0.04585048
100,0,1.3,4,100,-13856,-7232,-13774,-1628,-45,-3116,-1740,-12424,6308,-1872,4274,4026,59.94,65.65746094,59.34,65.83,0,0.046663054,0,0.000624143
100,0,1.3,1,0,-2763,-12195.69156,-7390.735566,-532.5,1157.001231,-3903.112681,6042,-5838,7410,-884,5066,1182,59.94494606,65.69,59.34,65.83,0.004946061,0.032539062,0,0
100,0,1.3,1,0.909090909,8330,-15064,-294,563,1977,-5024,1586,-921.256895,2360,-387.4611227,3712.293153,1533,59.9915978,65.69,59.34,65.83,0.04665174,0,0,0
100,0,1.3,1,1.818181818,7765.870501,-13536.85968,924.048414,62.62962963,1702.284135,-5707.244123,-2870,2372,-2690,20,1647,1884,60,65.67465543,59.31785874,65.83,0.008402198,-0.01534457,-0.022141258,0
100,0,1.3,1,2.727272727,6290.185447,-10450.60825,1691.246429,-866.6296296,1117.790492,-6276.788728,-1053,4132.128463,-2440.31653,553.9500955,253.3349704,1506.986106,60,65.61,59.28,65.83,0,-0.06465543,-0.037858742,0
100,0,1.3,1,3.636363636,4228,-8048,1958,-1367,583,-6515,764,4920,-1764,994,-791,767,60,65.4958956,59.28,65.86530616,0,-0.114104402,0,0.035306164
100,0,1.3,1,4.545454545,70,-7048,-2692,-1293,233,-6377,28,2268,856,1204,-1338,-188,60,65.36176742,59.28,65.94409962,0,-0.134128181,0,0.078793455
100,0,1.3,1,5.454545455,3523,-7212.076923,-2343.273028,-890.940172,153.5412642,-6156.3878,174,428,1648,1411,-1085,-1558,60,65.22782217,59.28,66.02569281,0,-0.133945251,0,0.081593191
100,0,1.3,1,6.363636364,6976,-7480,-1586,-528,87,-5826,-506,-804,1392,1735,-839,-2411,60,65.08802823,59.28,66.07570039,0,-0.139793933,0,0.050007576
100,0,1.3,1,7.272727273,5186,-7731.923077,182.2730279,-505.0869096,-122.6120858,-5132.277268,-494,-542,286,2156,-446,-3681,60,64.94780702,59.28,66.12,0,-0.140221214,0,0.044299614
100,0,1.3,1,8.181818182,3396,-7880,1542,-489,-280,-4407,-527.7900875,-626.4629896,-42.25931621,2457.231434,-429.3854916,-4470.586223,60,64.81257992,59.28,66.2001291,0,-0.135227095,0,0.080129099
100,0,1.3,1,9.090909091,3732,-7420,234,-461,-84,-4048,-614.9329446,-866.9174482,-312.825014,2725.7146,-420.8163197,-5132.633709,60,64.68776835,59.28,66.3144905,0,-0.124811574,0,0.114361397
100,0,1.3,2,10,4081.186047,-7729,133.0776699,-427.6913992,-90.57692308,-3603.459097,-734.0874636,-1243.961611,-528.3185441,2966.366457,-417.1024697,-5698.434172,60,64.5787937,59.28,66.45337248,0,-0.108974653,0,0.138881984
100,0,1.3,2,10.90909091,4278,-8038,102,-383,-102,-3116,-863.9125364,-1738.193712,-691.361357,3184.103965,-415.0539273,-6199.279321,59.97983539,64.48799974,59.28,66.60706334,-0.020164609,-0.090793954,0,0.15369086
100,0,1.3,2,11.81818182,4031,-8006,189,-291.3892043,-114.9230769,-2581.065299,-983.0670554,-2330.211988,-804.5749036,3383.844085,-411.4806778,-6666.460868,59.94053498,64.41573006,59.28,66.76585137,-0.039300412,-0.072269679,0,0.158788024
100,0,1.3,2,12.72727273,3784,-7974,276,-199,-123,-2102,-1070.209913,-3000.614672,-870.5806343,3570.503777,-403.1927069,-7131.270524,59.94,64.35887748,59.28,66.92002484,-0.000534979,-0.056852585,0,0.154173477
100,0,1.3,2,13.63636364,3884,-8344,102,-156,-80,-1793,-1104,-3730,-892,3749,-387,-7625,59.94,64.34,59.28553711,67.06085709,0,-0.018877479,0.005537109,0.14083225
100,0,1.3,2,14.54545455,4033.178218,-7952,-34.29851363,-87.33906987,-84.40406977,-1478.146374,-996,-4966,-666,3904,-152,-8120,59.94,64.34,59.33446289,67.19808641,0,0,0.048925781,0.13722932
100,0,1.3,2,15.45454545,4128,-7560,-104,-20,-95,-1180,-1130,-5862.126183,-575.4117647,3975.067489,-30.2826087,-8390.740902,59.94,64.34,59.3155957,67.35286212,0,0,-0.018867187,0.154775706
100,0,1.3,2,16.36363636,3582.603335,-7699.114943,62.98594378,30.18867925,-133.5959302,-916.1061189,-1264,-6652,-538,4030,24,-8572,59.94,64.34,59.28,67.47683284,0,0,-0.035595703,0.123970719
100,0,1.3,2,17.27272727,2578,-7924,444,56,-166,-683,-1184.291843,-7636.838769,-931.2884662,4097.000532,-91.77543371,-8688.205896,59.94,64.35456,59.28,67.5345271,0,0.01456,0,0.057694262
100,0,1.3,2,18.18181818,1500,-8088,1222,25,-145,-492,-1082,-8216,-1326,4151,-331,-8785,59.94,64.38928,59.28553711,67.54600806,0,0.03472,0.005537109,0.011480965
100,0,1.3,2,19.09090909,1176,-7570,1594,-10,-134,-489,-1039.629316,-8097.777778,-1328.301986,4185.802622,-705.5549362,-8886.826296,59.94,64.43072,59.33446289,67.49207661,0,0.04144,0.048925781,-0.053931452
100,0,1.3,2,20,656,-7672,1268,-65,-181,-480,-1008.259103,-7878.222222,-1329.595437,4213.012422,-1213.066584,-8988.23991,59.94,64.46544,59.34,67.3834933,0,0.03472,0.005537109,-0.108583316
100,0,1.3,2,20.90909091,432,-7778,1116,-74,-186,-545,-996,-7760,-1330,4224,-1670,-9101,59.94,64.48,59.3403317,67.22573424,0,0.01456,0.000331699,-0.157759056
100,0,1.3,2,21.81818182,243.0891089,-7815.986498,662.5154994,-91.83948686,-155.5,-669.5627951,-1268.517611,-8140.608001,-965.8548387,4204.902439,-1998.66807,-9244.361441,59.94,64.43214844,59.37075151,67.06419671,0,-0.047851563,0.030419816,-0.16153753
100,0,1.3,2,22.72727273,144,-7852,314,-116,-125,-832,-1794,-8870,-486,4166,-2315,-9386,59.94,64.41,59.42610157,67.02,0,-0.022148437,0.05535006,-0.04419671
100,0,1.3,2,23.63636364,813,-7931.478091,782,-141.5454026,-132.4455128,-1024.845858,-2438,-9748,-316,4110,-2682,-9491,59.94,64.41,59.50877657,67.02,0,0,0.082674997,0
100,0,1.3,2,24.54545455,1482,-8052,1250,-176,-148,-1202,-2494,-10382,-370,4084,-3032,-9503,59.91785874,64.3325056,59.54956957,67.04919067,-0.022141258,-0.077494403,0.040793001,0.029190672
100,0,1.3,2,25.45454545,1388.231416,-8299.025559,1248.646341,-244.5439796,-179.5544872,-1308.670049,-2762,-11236,-360,4022,-3658,-9326,59.88,64.2,59.58,67.09,-0.037858742,-0.132505597,0.030430427,0.040809328
100,0,1.3,2,26.36363636,1196,-8478,1244,-322,-203,-1403,-2994,-11588,-248,4033,-4035,-9125,59.91785874,64.23031732,59.61660804,67.08083079,0.037858742,0.030317318,0.036608037,-0.009169208
100,0,1.3,2,27.27272727,914,-8238,1094,-375,-192,-1513,-4326,-11496,134,3908,-4221,-8835,59.93851685,64.29274154,59.65485285,67.05756548,0.020658104,0.062424219,0.038244809,-0.023265314
100,0,1.3,2,28.18181818,1626,-8388,808,-435,-207,-1589,-6079.601873,-11991.04239,257.80641,3673.805021,-3981.56371,-8462.643641,59.91833862,64.4225663,59.69266969,67.02656752,-0.020178223,0.129824759,0.037816839,-0.030997955
100,0,1.3,2,29.09090909,1858,-6208,772,-723,-364,-1672,-7150,-12998,384,3360,-3547,-7981,59.8915686,64.56292048,59.73382124,66.9835928,-0.02677002,0.140354188,0.041151558,-0.042974718
100,0,1.3,2,30,1992.0705,-6471.811189,719.1099138,-707.3987342,-394.7656317,-1759.8409,-7121,-14814.21774,897.5505118,2943.345254,-3059.562393,-7275.660367,59.88,64.61966053,59.77978757,66.91660824,-0.011568604,0.056740046,0.04596633,-0.066984565
100,0,1.3,2,30.90909091,2081.87178,-7071.496503,654.9310345,-670.0632911,-407.2441748,-1851.392147,-7092,-16214,1504,2567,-2620,-6381,59.88,64.58770879,59.81327966,66.83771874,0,-0.031951741,0.033492083,-0.078889497
100,0,1.3,2,31.81818182,2190.73717,-7719.433566,600.7866379,-625.1962025,-420.6006304,-1930.497322,-7394,-16326,1818,2381,-2392,-5299,59.88,64.52633498,59.8115978,66.76004951,0,-0.061373808,-0.001681855,-0.077669231
100,0,1.3,2,32.72727273,2382,-8128,578,-587,-454,-1981,-7720.070774,-15981.23368,1244.875,1920.454429,-2006.100078,-3599.70328,59.88,64.42044028,59.76494606,66.67508321,0,-0.105894697,-0.04665174,-0.084966304
100,0,1.3,2,33.63636364,3056,-8266,1050,-559,-715,-2003,-8065.896243,-15054.45649,-16,1218.943346,-1489.147013,-1454.730653,59.88,64.42663135,59.77794434,66.46108746,0,0.00619107,0.012998274,-0.213995743
100,0,1.3,2,34.54545455,2460,-10786,1192,-649,-813,-1980,-8340.273591,-13706.95105,-1276.875,534.2105896,-931.1204422,569.8573004,59.88,64.48888105,59.82375659,66.27,0,0.062249692,0.045812257,-0.191087465
100,0,1.3,2,35.45454545,944.0093552,-10499.24934,480,-746.3754016,-697.5,-2001.328512,-8452,-12100,-1850,124,-422,1908,59.88,64.6894018,59.86151592,66.27,0,0.20052075,0.03775933,0
100,0,1.3,2,36.36363636,-178,-10022,-232,-825,-582,-2054,-8269.918922,-8512.631272,371.8518519,-6.521680981,110.6329627,2575.257028,59.851875,64.76,59.89791629,66.27,-0.028125,0.070598204,0.036400364,0
100,0,1.3,2,37.27272727,23,-9546.750656,-99.3687231,-865.6327224,-636.9185393,-2227.719492,-7757.171177,-3613.426747,4498.148148,-89.90898864,623.483148,3062.803026,59.70773438,64.76,59.93296361,66.27,-0.144140625,0,0.035047325,0
100,0,1.3,2,38.18181818,224,-9262,150,-898,-729,-2464,-6964,-1148,6720,-225,853,3518,59.7,64.83511291,59.97526969,66.24884595,-0.007734375,0.075112914,0.04230608,-0.021154054
100,0,1.3,2,39.09090909,-606,-9858,434,-932,-804,-2640,-1864.532527,-1992.564445,364.5185185,-763.5802469,254.6296296,3985.601375,59.7,64.97,60,66.19440777,0,0.134887086,0.024730307,-0.054438173
100,0,1.3,2,40,-574.5572139,-10287.51966,573.3751397,-969.06152,-801.2763533,-2955.641398,6645.622625,-3677.573335,-11438.51852,-1560.679012,-856.6296296,4426.218441,59.74101563,65.02672137,60,66.12067723,0.041015625,0.056721373,0,-0.07373054
100,0,1.3,2,40.90909091,-489.7810945,-10642.31391,672.0090829,-1009.352081,-794.1082621,-3367.253341,11134,-4930,-17794,-1970,-1455,4861,59.76,65.033335,60,66.02640997,0.018984375,0.006613631,0,-0.094267266
100,0,1.3,2,41.81818182,-366,-10896,754,-1057,-784,-3747,10233.79966,-5467.600812,-17037.22746,-1951.250039,-1368.749207,5364.984581,59.76,64.98173084,60,65.92852304,0,-0.051604163,0,-0.097886925
100,0,1.3,2,42.72727273,-76,-11044,824,-1122,-763,-4041,8003.878983,-5884.730442,-15117.20239,-1901.950117,-1152.847622,5932.057654,59.73264401,64.89339619,60.03,65.84037152,-0.027355994,-0.088334651,0.03,-0.088151522
100,0,1.3,2,43.63636364,-511.0411985,-11501.12367,746,-1221.899254,-811.3333333,-4358.680582,5150.258474,-6223.259665,-12559.36359,-1832.525176,-871.5714327,6461.638436,59.7,64.83,60.05794239,65.73276517,-0.032644006,-0.063396189,0.027942387,-0.107606347
100,0,1.3,2,44.54545455,-1212,-12236,668,-1286,-908,-4710,2378.958644,-6525.059259,-9889.149854,-1753.400156,-589.1968291,6853.146145,59.7,64.83,60.01555556,65.54760929,0,0,-0.042386831,-0.185155878
100,0,1.3,2,45.45454545,-1655.500577,-13105.09074,1374,-1236,-1077.166667,-5123.705135,396,-6832,-7632,-1675,-370,7006,59.69421578,64.83,60,65.44812644,-0.005784222,0,-0.015555556,-0.099482857
100,0,1.3,2,46.36363636,-2212,-14474,2080,-1186,-1198,-5579,-995.0019332,-7191.450885,-5625.825527,-1600.577933,-191.2098182,6673.880535,59.65234688,64.83,60,65.41045153,-0.041868899,0,0,-0.037674909
100,0,1.3,2,47.27272727,-3502,-17832,1722,-1258,-1115,-6064,-2295.723941,-7561.73412,-3574.33972,-1518.187232,-13.90872727,5906.264759,59.60753926,64.87689453,60,65.33563644,-0.04480762,0.046894531,0,-0.074815093
100,0,1.3,2,48.18181818,-3192.774255,-16828.6689,1244.500977,-1161.592593,-1285.196792,-6311.407878,-3258.083978,-7851.150295,-1801.684052,-1415.452915,121.8467273,5046.266604,59.58,64.97591309,59.99940159,65.24178036,-0.02753926,0.099018555,-0.000598412,-0.093856078
100,0,1.3,3,49.09090909,-2436.881843,-14963.56002,718.0204961,-976.5185185,-1622.504696,-6489.865422,-3634,-7968,-632,-1280,176,4437,59.58,65.03003092,59.98285365,65.13365868,0,0.054117839,-0.016547934,-0.108121675
100,0,1.3,3,50,-1492,-13954,308,-859,-1867,-6708,-3324,-7756,-80,-1026,79,4149,59.58,65.04,59.95714635,65.02916457,0,0.009969076,-0.025707307,-0.104494116
100,0,1.3,3,50.90909091,-303.7805705,-13946.66416,9.839160839,-832.0833333,-1956.503573,-7116.772772,-3838,-7742.192609,-480.1551197,-953.739411,79,3726.44581,59.58,65.04,59.94059841,64.97193437,0,0,-0.016547934,-0.057230197
100,0,1.3,3,51.81818182,1536,-13944,-140,-821,-2017,-7432,-4352,-7738,-1084,-879,79,3241,59.58,65.07191533,59.94,64.97,0,0.031915327,-0.000598412,-0.001934369
100,0,1.3,3,52.72727273,6529.151607,-17224,1361.154534,-911.9195046,-2049.754242,-7503.272783,-4320,-7992,-1438,-581,48,2758,59.58,65.11,59.94067383,64.96921387,0,0.038084673,0.000673828,-0.000786133
100,0,1.3,3,53.63636364,10394,-20504,3802,-1055,-2100,-7531,-4178,-7718,-710,-354,66,2402,59.58,65.11,59.98608398,64.91623535,0,0,0.045410156,-0.052978516
100,0,1.3,3,54.54545455,7234,-17936,5614,-1151,-3025,-6545,-3738,-8752,50,-186,114,1839,59.58,65.11,60,64.90433397,0,0,0.013916016,-0.011901378
100,0,1.3,3,55.45454545,925.7165544,-12453.5491,6420.579077,-1308.695369,-3845.832147,-4331.990291,-3357.547735,-8478.222222,193.2619275,-31.14418226,84.44444444,1513.535487,59.58,65.11,60,64.93024042,0,0,0,0.025906447
100,0,1.3,3,56.36363636,-3452,-7258,6764,-1412,-4284,-2746,-3004.715553,-7969.777778,262.3512236,107.9799619,29.55555556,1267.259241,59.55,65.11,60,64.959653,-0.03,0,0,0.029412583
100,0,1.3,3,57.27272727,-1616.962963,-4901.73969,4595.555556,-1345.516134,-3827.54153,-2789.037037,-2650,-7696,388,177,1.60E-24,1054,59.52,65.11,60,64.97,-0.03,0,0,0.010346996
100,0,1.3,4,58.18181818,1790.962963,-3200.261149,568.4444444,-1173.254491,-2819.527504,-2868.962963,-2190.627069,-7701.403642,1016.376472,189.9609602,35.15580448,845.8443696,59.52,65.11,60,64.97,0,0,0,0
100,0,1.3,4,59.09090909,3626,-1912,-1600,-936,-1802,-2912,-1914,-7720,1546,195,79,690,59.510625,65.1209375,59.99010635,64.98460411,-0.009375,0.0109375,-0.009893646,0.014604112
100,0,1.3,4,60,2677.642445,-832.2896464,-1309.810634,-419.151776,-903.1955358,-2001.827756,-2210,-8364,852,133,91,609,59.46257813,65.17699219,59.9462322,65.03732139,-0.048046875,0.056054688,-0.043874158,0.052717281
100,0,1.3,4,60.90909091,864,-130,-714,172,-93,-481,-2007.174291,-8418.927431,1032.493369,116.9356436,113.5874126,550.0150454,59.46,65.18,59.91924925,65.018125,-0.002578125,0.003007813,-0.026982948,-0.019196392
100,0,1.3,4,61.81818182,-1306,154,164,505,471,745,-1590,-8436,1380,111,129,512,59.46059841,65.18045593,59.89569474,64.95694336,0.000598412,0.000455933,-0.023554511,-0.061181641
100,0,1.3,4,62.72727273,-807.163183,-249.4074074,124.7885122,744.1003047,781.7034577,1551.006218,-972,-7584,1804,130,121,498,59.47714635,65.19439853,59.88147215,64.90601563,0.016547934,0.013942601,-0.014222587,-0.050927734
100,0,1.3,4,63.63636364,209.0069674,-998.5925926,3.799246526,945.0397791,1013.48561,2208.554346,-563.4584193,-7803,1820.993147,86.37391304,150.5,510.599,59.50285365,65.22162223,59.88,64.91437934,0.025707307,0.027223692,-0.001472149,0.008363719
100,0,1.3,4,64.54545455,1022,-1402,-204,1139,1272,2964,-304,-8022,1826,14,180,541,59.51940159,65.25373092,59.88,64.96313272,0.016547934,0.032108691,0,0.048753376
100,0,1.3,4,65.45454545,1390,-1116,-1250,1333,1616,3997,-169.4153132,-7909,1584,-39.05248447,161.5,621.57577,59.52,65.29883981,59.88,64.98895168,0.000598412,0.045108895,0,0.025818965
100,0,1.3,4,66.36363636,1340,-886,-1620,1497,1767,4621,-110,-7796,1342,-100,143,748,59.52,65.33,59.88,65.00698788,0,0.031160187,0,0.018036193
100,0,1.3,4,67.27272727,1348.343284,-948.6861167,-1525.48403,1712.770442,1829.14199,5260.433664,-748,-8452,1450,-195,182,904,59.52,65.33,59.88,65.02676839,0,0,0,0.01978051
100,0,1.3,4,68.18181818,1372,-1126,-1322,1925,1855,5932,-1101.148944,-8399.901376,1365,-316.1403743,205.4128458,1044.152698,59.52,65.35643312,59.89391602,65.05700741,0,0.026433123,0.013916016,0.030239024
100,0,1.3,4,69.09090909,1486,-1970,-976,2079,1694,6676,-1262,-8298,1280,-417,222,1175,59.52,65.4634879,59.93932617,65.10426449,0,0.107054773,0.045410156,0.047257074
100,0,1.3,4,70,1442,-2560,-844,2140,1481,7158,-971,-8132.098624,1548,-460.0199095,232.0209362,1302.64197,59.52,65.51005401,59.94,65.18014752,0,0.046566109,0.000673828,0.075883034
100,0,1.3,4,70.90909091,1308,-3266,-788,2202,1075,7806,-680,-8016,1816,-501,243,1416,59.52,65.54909017,59.93770405,65.28272966,0,0.039036164,-0.00229595,0.102582143
100,0,1.3,4,71.81818182,1312,-3520,-824,2259,770,8205,-808.3753666,-8052,1480,-590.0679743,274.7421996,1499.66903,59.52,65.59967026,59.89251781,65.42085283,0,0.050580094,-0.045186241,0.138123167
100,0,1.3,4,72.72727273,2040,-4138,-1068,2390,287,8801,-1022,-8088,1144,-677,305,1584,59.52,65.56618767,59.88,65.50143257,0,-0.033482597,-0.01251781,0.080579744
100,0,1.3,4,73.63636364,2154,-4424,-1480,2509,6,9156,-1234.624633,-8024.33561,1150.861702,-714.8713851,316.1794872,1712.9467,59.52,65.40803582,59.88,65.53959066,0,-0.158151842,0,0.038158085
100,0,1.3,4,74.54545455,1826.296296,-4856.517518,-1365.925926,2645.754257,-126.4054949,9535.365244,-1362,-7842,1174,-752,321,1833,59.4,65.4,59.88,65.54,-0.12,-0.008035823,0,0.000409342
100,0,1.3,4,75.45454545,1217.703704,-5406.808148,-1154.074074,2779.73262,-219.7027474,9912.79755,-1132,-6916,1684,-824,315,1898,59.28,65.40474571,59.87710564,65.54332235,-0.12,0.004745712,-0.002894362,0.003322354
100,0,1.3,4,76.36363636,890,-6016,-1040,2844,-255,10206,-988.1689655,-6953.385382,1582,-883.730625,385.984148,1972.728708,59.28,65.54275914,59.83940973,65.58706345,0,0.138013431,-0.037695909,0.043741095
100,0,1.3,4,77.27272727,893.4709789,-6671.635862,-1155.62963,2848.605532,-104.6144758,10394.86555,-920,-7040,1480,-936,535,2061,59.28,65.78542752,59.77388561,65.6669713,0,0.242668375,-0.06552412,0.079907851
100,0,1.3,4,78.18181818,905.3864022,-7409.703835,-1370.37037,2850.922047,267.1043816,10544.18317,-1630,-7183.177363,1791.394595,-976.3003663,787.3746248,2202.508313,59.28,66.01572378,59.70093629,65.75881483,0,0.230296263,-0.072949318,0.091843532
100,0,1.3,4,79.09090909,928,-8244,-1486,2855,741,10699,-2340,-7518,2238,-1023,1072,2310,59.28,66.19137616,59.7,65.76,0,0.175652381,-0.000936291,0.001185167
100,0,1.3,4,80,1230,-9274,-1440,2868,1465,10878,-518,-10088,2458,-1116,1265,2329,59.28410989,66.2680611,59.7,65.75699219,0.004109888,0.076684937,0,-0.003007813
100,0,1.3,4,80.90909091,1481.364075,-10025.68468,-1219.662198,2863.013585,2188.70339,10926.75888,597.187039,-9983.886681,1826.335031,-1157.454947,976,2490.900594,59.36918025,66.22348061,59.7,65.7009375,0.08507036,-0.044580492,0,-0.056054688
100,0,1.3,4,81.81818182,1720.169772,-10677.05841,-816.2333594,2848.916058,2855.962806,10956.76833,1122,-9694,898,-1202,687,2744,59.41018525,66.18356524,59.68598459,65.69,0.041005,-0.039915368,-0.014015408,-0.0109375
100,0,1.3,4,82.72727273,2034,-11456,-400,2827,3149,10967,34,-8418,400,-1326,751,2964,59.42374132,66.15677816,59.64,65.69,0.013556071,-0.026787083,-0.045984592,0
100,0,1.3,4,83.63636364,2696.661729,-12572.35366,63.86968076,2717.411854,3129.23323,10890.14222,-222,-8898,206,-1432,884,3182,59.43204412,66.13321915,59.60676551,65.69,0.0083028,-0.023559006,-0.033234492,0
100,0,1.3,4,84.54545455,3542.965594,-13907.36167,542.0459515,2505.420017,3075.910905,10697.28444,-118.4010176,-9721.335993,520.5846645,-1561.894706,894.8242621,3418.089294,59.4396928,66.10703002,59.57280692,65.6865625,0.007648682,-0.026189135,-0.033958587,-0.0034375
100,0,1.3,4,85.45454545,4002,-15196,762,2290,2998,10445,46,-10682,1044,-1650,904,3670,59.45128652,66.07235255,59.53490921,65.6225,0.011593717,-0.034677468,-0.037897713,-0.0640625
100,0,1.3,4,86.36363636,4048,-16328,730,2102,2815,10030,148.9284676,-11715.29946,1538.934505,-1670.850302,998.4043758,3935.00401,59.47460156,66.0174894,59.50031708,65.6328618,0.023315042,-0.054863145,-0.034592132,0.010361795
100,0,1.3,4,87.27272727,4737.511421,-15879.53623,578.8396112,1928.863435,2614.236406,9373.742346,235.2051765,-12846.32174,2084.830671,-1685.866935,1201.558374,4211.030394,59.51614715,65.92068586,59.46466445,65.68920212,0.041545586,-0.096803544,-0.035652625,0.056340322
100,0,1.3,4,88.18181818,5642,-14974,452,1760,2345,8452,335.8792972,-13757.68315,2526.311502,-1694.950101,1445.183185,4501.041581,59.55399922,65.76105957,59.38050967,65.69,0.037852075,-0.15962629,-0.084154785,0.000797883
100,0,1.3,4,89.09090909,6059.428371,-13338.46377,500,1608.797817,1792.257672,7081.891074,482,-14132,2708,-1698,1661,4808,59.59080811,65.69397517,59.34131895,65.6882414,0.036808884,-0.067084402,-0.039190716,-0.0017586
100,0,1.3,4,90,6390,-12160,548,1416,1117,5253,796,-13836,2588,-1621,1834,5150,59.62596013,65.74056585,59.35960716,65.66385711,0.035152025,0.046590678,0.018288215,-0.024384287
100,0,1.3,4,90.90909091,6650.398886,-12319,-122,1012.808093,538.3459578,2753.117907,1630.449507,-15192.44444,2455.044733,-1599.671282,1839.907942,5502.958692,59.66117647,65.79034806,59.38522288,65.62970283,0.035216341,0.04978221,0.025615713,-0.034154285
100,0,1.3,4,91.81818182,6998,-12478,-792,435,0,96,2736.113642,-17711.55556,2293.989857,-1588.120342,1842.006336,5857.218916,59.69647059,65.82952982,59.39984734,65.61020354,0.035294118,0.039181763,0.014624466,-0.019499288
100,0,1.3,4,92.72727273,8110,-11314,-402,-306,-468,-2004,3288,-19068,2042,-1566,1847,6186,59.72887649,65.79191533,59.4,65.61,0.032405907,-0.037614492,0.000152656,-0.000203542
100,0,1.3,4,93.63636364,7895.169251,-12712.176,62.90751225,-295.496,-381.472,-2340.960958,2825.843206,-17640.40888,1037.399382,-1416.953141,1893.144635,6482.672649,59.77143932,65.76300781,59.39505394,65.61,0.04256283,-0.028907514,-0.004946061,0
100,0,1.3,4,94.54545455,7297.667754,-16046.288,598.5409513,-270.448,-175.136,-2583.066078,1806,-15232,192,-1285,1988,6746,59.85361314,65.8190625,59.3484022,65.61,0.082173814,0.056054687,-0.04665174,0
100,0,1.3,4,95.45454545,6387.98163,-20025.712,1104.920634,-240.552,71.136,-2741.790719,-66,-13234,932,-1317,2166,6962,59.91070313,65.83,59.34,65.61,0.057089986,0.0109375,-0.008402198,0
100,0,1.3,4,96.36363636,5236.597005,-23359.824,1482.066878,-215.504,277.472,-2828.61024,-5060,-16138,1442,-1893,2331,7401,59.94,65.83,59.34,65.61,0.029296875,0,0,0
100,0,1.3,4,97.27272727,3914,-24758,1630,-205,364,-2855,-8218,-19172,3812,-1938,2652,7309,59.94,65.91744856,59.34,65.64983988,0,0.08744856,0,0.039839881
100,0,1.3,4,98.18181818,2097.880052,-10184,1491.733617,-375.7676983,-1463,-2647.5,-9594,-19212,4850,-2123,3359,6701,59.94,65.97054688,59.34,65.7047067,0,0.053098315,0,0.054866816
100,0,1.3,4,99.09090909,-1490,4390,1018,-806,-3290,-2440,-5428.772055,-17184.85503,5433.604387,-2090.685189,3968.479685,5439.813173,59.94,65.794375,59.34,65.75335857,0,-0.176171875,0,0.048651876
100,0,1.3,4,100,-15948,-4326,-13592,-2046,-1719,-2501,634,-13484,5958,-1996,4508,3796,59.94,65.76,59.32101563,65.76,0,-0.034375,-0.018984375,0.006641428
100,0,1.3,1,0,-6262.792479,-6578.507216,-9282.421009,-1093.5,704.2975545,-3889.500496,3780,-9614,6664,-1450,4963,2086,59.94,65.76,59.28,65.76,0,0,-0.041015625,0
100,0,1.3,1,0.909090909,4904,-8480,-1438,-141,2261,-5225,-692,-4690,2864,-832,4521,846,59.94,65.728511,59.28,65.79751851,0,-0.031488999,0,0.037518512
100,0,1.3,1,1.818181818,6951.821866,-14000.66841,8779.421009,-189.4835554,1157.603494,-5160.18211,-3634,-1358,-888,-616,2391,1575,59.94,65.67737445,59.28,65.84721222,0,-0.051136549,0,0.049693709
100,0,1.3,1,2.727272727,8358,-18072,15462,-326,-359,-5024,-1902,6928,-3066,87,-36,1347,59.94,65.63506344,59.28,65.89052026,0,-0.042311017,0,0.043308035
100,0,1.3,1,3.636363636,10002,-6582,5274,-961,-997,-4809,-310.1153316,4821.953284,-1056,536.4405898,-1317.19041,445.5540232,59.92285365,65.5352538,59.28,65.94106682,-0.017146346,-0.099809634,0,0.050546563
100,0,1.3,1,4.545454545,6541,-8849,-3845.403883,-1120.480956,-301.3832055,-5427.338621,550,2058,954,904,-1892,-831,59.88059841,65.34768228,59.28,65.99461924,-0.042255241,-0.187571524,0,0.053552421
100,0,1.3,1,5.454545455,3080,-11116,-8728,-1179,617,-6092,168.3703704,825.3851786,927.1794297,1239.142666,-1739.661887,-1936.511284,59.88,65.16081347,59.28,66.05181699,-0.000598412,-0.18686881,0,0.057197751
100,0,1.3,1,6.363636364,4984,-6592,-2312,-416,945,-6147,-540.3703704,-105.1319954,843.0255262,1549.632015,-1402.434884,-3051.974672,59.88,64.99775495,59.28,66.11430701,0,-0.163058522,0,0.062490016
100,0,1.3,1,7.272727273,6134.715733,-6704.091114,2405.279112,-673.5,336.5,-5409.618696,-922,-530,696,1899,-1060,-4181,59.88,64.87572766,59.28,66.18373622,0,-0.122027288,0,0.069429216
100,0,1.3,1,8.181818182,6674,-6946,4766,-931,-272,-4400,-312,-594,-136,2345,-769,-5333,59.88,64.75833786,59.28,66.26175158,0,-0.117389798,0,0.078015352
100,0,1.3,1,9.090909091,4933,-7371.70955,1871.95421,-917.6889002,-193.5988372,-3949.005156,-603.9259259,-1073.773298,-373.0464491,2760.966623,-640.6917109,-6028.306319,59.88,64.63673738,59.28,66.35,0,-0.121600476,0,0.088248424
100,0,1.3,2,10,3192,-7920,-1266,-879,-86,-3609,-1146.074074,-2009.306412,-514.8454879,3150.358154,-554.098483,-6564.404519,59.88,64.53172266,59.28,66.47243335,0,-0.105014726,0,0.122433353
100,0,1.3,2,10.90909091,3592,-8440,-1558,-666,-41,-3328,-1438,-2956,-618,3461,-445,-7031,59.88,64.46270179,59.28,66.6104832,0,-0.069020864,0,0.138049843
100,0,1.3,2,11.81818182,4270.841629,-8327.778157,-891.4760349,-536.0137116,-54.51428571,-2862.460202,-1406.617395,-3785.960299,-704.6194831,3703.260265,-237.3789552,-7497.107313,59.88,64.4157247,59.28,66.74877943,0,-0.046977091,0,0.138296234
100,0,1.3,2,12.72727273,4720,-8178,-120,-416,-85,-2316,-1323.132186,-4645.952044,-769.0185974,3920.050227,52.71367536,-7951.066832,59.88,64.45429688,59.28,66.88478619,0,0.038572172,0,0.136006758
100,0,1.3,2,13.63636364,4234,-8122,14,-256,-145,-1799,-1203.538279,-5503.363639,-826.10797,4108.010056,351.3957836,-8361.572696,59.88,64.55,59.28,67.02,0,0.095703125,0,0.135213812
100,0,1.3,2,14.54545455,4051.952636,-7828.363636,-189,-138.2859251,-110,-1471.896612,-1063.829582,-6325.58349,-890.7982284,4263.779923,584.7852612,-8697.319039,59.88,64.51181032,59.28,67.16333165,0,-0.038189683,0,0.143331653
100,0,1.3,2,15.45454545,3872,-7578,-392,-51,-75,-1192,-920,-7080,-978,4384,679,-8927,59.87242798,64.46404084,59.28,67.28859393,-0.007572016,-0.047769475,0,0.125262273
100,0,1.3,2,16.36363636,3394.856444,-7744.571298,53.9587889,15.80327869,-99.379681,-881.1492181,-700.9368647,-7889.0271,-1126.50188,4486.070476,569.9404539,-9062.174828,59.82757202,64.42595916,59.28,67.39169171,-0.044855967,-0.038081684,0,0.103097784
100,0,1.3,2,17.27272727,2750,-8034,834,49,-144,-601,-441.3573212,-8648.069106,-1315.385268,4569.479683,294.8809078,-9161.652112,59.82,64.37818968,59.28,67.2856035,-0.007572016,-0.047769475,0,-0.106088209
100,0,1.3,2,18.18181818,2096,-8296,1554,34,-191,-395,-316,-8984,-1470,4604,-68,-9265,59.82,64.34,59.28,67.09,0,-0.038189683,0,-0.195603501
100,0,1.3,2,19.09090909,1440,-7920,1640,-38,-162,-318,-338,-8882,-1562,4584,-680,-9388,59.83248,64.34728,59.28,67.1446875,0.01248,0.00728,0,0.0546875
100,0,1.3,2,20,849.2154623,-7926.957268,1416.546787,-89.52724666,-165,-335.5173913,-536,-9048,-1608,4527,-1053,-9441,59.86224,64.36464,59.29341746,67.1489945,0.02976,0.01736,0.013417464,0.004307004
100,0,1.3,2,20.90909091,322,-7950,1116,-127,-168,-369,-833.6848247,-9398.339482,-1417.6875,4434.912853,-1302.063964,-9457.090245,59.89776,64.38536,59.38053328,67.03236515,0.03552,0.02072,0.087115815,-0.116629351
100,0,1.3,2,21.81818182,-112,-8332,1000,-149,-167,-409,-1212.928763,-9920.874414,-999,4315.291177,-1498.868744,-9468.663551,59.92752,64.40272,59.42737224,67.16022797,0.02976,0.01736,0.046838961,0.127862813
100,0,1.3,2,22.72727273,556,-7886,1204,-184,-111,-557,-1641.70832,-10500.97214,-580.3125,4191.023912,-1692.239151,-9475.655082,59.94,64.41,59.46,67.4,0.01248,0.00728,0.03262776,0.239772033
100,0,1.3,2,23.63636364,580,-8394,912,-244,-143,-642,-2088,-11024,-390,4085,-1931,-9478,59.90214126,64.41,59.49593257,67.36094123,-0.037858742,0,0.035932566,-0.03905877
100,0,1.3,2,24.54545455,678.9010989,-8294.203621,794.5521162,-273.1931951,-171.6554622,-782.8004758,-2525.382973,-11558.64387,-684,4012.497725,-2287.59058,-9340.307065,59.88,64.45521973,59.53901179,67.28636807,-0.022141258,0.045219727,0.043079221,-0.07457316
100,0,1.3,2,25.45454545,760,-8156,746,-298,-187,-953,-3007.85045,-12073.54416,-1230,3948.843844,-2703.027156,-9007.058574,59.88,64.85478027,59.59607281,67.16086648,0,0.399560547,0.057061024,-0.125501593
100,0,1.3,2,26.36363636,718.6886672,-8079.341711,791.348219,-327.0632643,-174.037037,-1136.488797,-3624,-12304,-1524,3857,-3029,-8598,59.88,64.83340862,59.65566247,67.02386908,0,-0.021371651,0.059589663,-0.136997397
100,0,1.3,2,27.27272727,625.3773344,-8017.448633,903.3631047,-359.1661601,-149.962963,-1328.479086,-4637.644988,-12163,-1284.281432,3673.227104,-3262.451101,-8023.68994,59.88,64.69,59.70414059,66.9344298,0,-0.143408623,0.048478112,-0.089439284
100,0,1.3,2,28.18181818,526,-7992,1046,-402,-137,-1487,-5792,-12022,-906,3396,-3380,-7366,59.88,64.63310546,59.74656004,66.88430072,0,-0.056894537,0.042419449,-0.050129079
100,0,1.3,2,29.09090909,407.2252494,-8196,1326.483254,-476.2427378,-190.9521277,-1592.411454,-6724,-12360,-650,2984,-3249,-6822,59.8715978,64.63565371,59.76,66.87,-0.008402198,0.002548245,0.013439965,-0.014300718
100,0,1.3,2,30,332,-8400,1534,-573,-263,-1692,-6933.307824,-13427.37207,-441.5206853,2464.92978,-2997.270514,-6097.170018,59.82494606,64.73728883,59.76,66.87,-0.04665174,0.101635118,0,0
100,0,1.3,2,30.90909091,414,-7842,658,-679,-290,-1822,-7122,-14258,-270,1921,-2680,-5173,59.82,64.79912952,59.76,66.84877422,-0.004946061,0.061840695,0,-0.021225778
100,0,1.3,2,31.81818182,906,-8366,700,-648,-294,-2014,-7820.640416,-13667.58468,-112.0385852,1444.857748,-2383.723228,-3912.681037,59.82,64.83,59.76003285,66.78299416,0,0.03087048,3.28E-05,-0.065780064
100,0,1.3,2,32.72727273,1144,-8296,648,-708,-333,-2114,-8570,-12502,-28,950,-2030,-2360,59.82,64.63859375,59.76375603,66.67294532,0,-0.19140625,0.003723181,-0.110048843
100,0,1.3,2,33.63636364,1480,-7830,954,-783,-379,-2316,-8878,-10972,-416,346,-1487,-506,59.82,64.563678,59.77289309,66.51880146,0,-0.074915753,0.009137059,-0.154143854
100,0,1.3,2,34.54545455,1617.09404,-8148.517413,898,-855.2931034,-424.4606286,-2434.766044,-8872.246372,-9812.059128,-605.0082159,-19.18430418,-1042.651887,943.489497,59.82,64.66170364,59.78636071,66.36144096,0,0.098025646,0.013467623,-0.157360501
100,0,1.3,2,35.45454545,1674,-8782,842,-895,-486,-2515,-8850.937188,-8852.029564,-744.0085564,-311.3467847,-643.9636197,2157.189193,59.79785874,64.7519513,59.80307558,66.24174217,-0.022141258,0.090247656,0.01671487,-0.119698786
100,0,1.3,2,36.36363636,1346.912156,-9870.482587,1476.902797,-830.5,-628.9969133,-2560.926371,-8808,-8452,-1068,-749,-258,2666,59.76,64.83,59.82212314,66.20219418,-0.037858742,0.078048701,0.019047561,-0.039547995
100,0,1.3,2,37.27272727,840,-10644,2176,-766,-823,-2604,-698,-32768,-6690,-1767,120,2628,59.80101563,64.88586251,59.85638599,66.35713006,0.041015625,0.055862506,0.034262846,0.154935884
100,0,1.3,2,38.18181818,516,-9926,2254,-806,-1020,-2674,-5048,-26216,4892,-494,-1766,3185,59.82,64.9,59.89483122,66.39091012,0.018984375,0.014137494,0.038445228,0.033780062
100,0,1.3,2,39.09090909,-268,-11466,770,-1154,-1219,-2750,-2946.37394,-15728.03336,4796.356108,-593.4649226,-20,2597.5,59.82,64.9,59.93264769,66.22024359,0,0,0.037816471,-0.170666536
100,0,1.3,2,40,-675.8562134,-11552.13043,-7.816249572,-1158.349278,-1124,-3007.45849,1860,-5522,4462,-887,1726,2010,59.7955957,64.87152832,59.975512,66.16393971,-0.024404297,-0.02847168,0.042864312,-0.056303875
100,0,1.3,2,40.90909091,-858,-11578,-356,-1162,-1029,-3370,11748,344,-15822,-2653,91,2725,59.76,64.83040784,60,66.10871388,-0.035595703,-0.041120477,0.024488002,-0.055225832
100,0,1.3,2,41.81818182,-301,-11159,-217.7276536,-1205.469659,-1169.5,-3704.08007,12056,-8656,-19398,-1750,-2756,4731,59.76,64.86569785,60,65.79028893,0,0.035290006,0,-0.318424947
100,0,1.3,2,42.72727273,256,-10740,10,-1276,-1310,-4051,-4624,-12846,3444,-542,-2966,5776,59.75617676,64.91462425,60,65.54387026,-0.003823242,0.048926399,0,-0.246418678
100,0,1.3,2,43.63636364,-897.7690443,-11703.18092,161.0390787,-1357.665617,-1274.5,-4414.222359,-10287.05736,-11598.6568,6907.552294,-1204.5,-1219,5503,59.71296387,64.96542411,60,65.4205775,-0.043212891,0.050799857,0,-0.123292753
100,0,1.3,2,44.54545455,-2226,-13046,360,-1410,-1239,-4772,-12522,-9614,8064,-1867,528,5230,59.67355616,64.94152832,60,65.32547036,-0.039407706,-0.023895785,0,-0.095107145
100,0,1.3,2,45.45454545,-2452.746638,-13604.65938,1067.688575,-1412.233577,-1331,-5087.727979,-5821,-7889.343203,228,-1853.629081,363.60793,5317.107324,59.63617946,64.9,60,65.25391201,-0.037376699,-0.04152832,0,-0.07155835
100,0,1.3,2,46.36363636,-2632,-14178,1638,-1413,-1423,-5413,880,-6902,-7608,-1809,-31,5556,59.59216212,64.9,60,65.19156335,-0.044017341,0,0,-0.062348663
100,0,1.3,2,47.27272727,-3034.484317,-15503.62767,1393.648531,-1382.109589,-1417.5,-5835.33588,-4212,-8658,-5060,-980,-986,6535,59.58,64.8890625,60,65.13829593,-0.012162122,-0.0109375,0,-0.053267411
100,0,1.3,2,48.18181818,-3310,-16778,1144,-1331,-1412,-6226,-7845.816452,-7897,37.96080159,-1120.419757,-445.2054042,5834.192204,59.58,64.83300781,60,65.11089792,0,-0.056054688,0,-0.027398016
100,0,1.3,2,49.09090909,-2614,-17276,1138,-1291,-1494,-6468,-9646,-7136,3578,-1303,199,4696,59.55264401,64.85370853,59.97264401,65.11,-0.027355994,0.020700716,-0.027355994,-0.000897919
100,0,1.3,3,50,-2092,-15412,1654,-1111,-2002,-6480,-4914,-7228,1400,-1364,335,3854,59.52,64.90434561,59.94067383,65.10875706,-0.032644006,0.050637085,-0.031970178,-0.001242943
100,0,1.3,3,50.90909091,-942,-13370,1294,-1046,-2311,-6693,-3692,-7166,-1252,-1271,112,3728,59.52,64.9556381,59.98608398,65.01575338,0,0.051292489,0.045410156,-0.093003678
100,0,1.3,3,51.81818182,1756,-12916,630,-1005,-2494,-7296,-3899,-7474.769587,-855,-1086.456825,77.53997021,3381.012452,59.52,64.97,60,64.94139341,0,0.014361897,0.013916016,-0.074359965
100,0,1.3,3,52.72727273,5837.66069,-16746.36778,1519.904488,-1139.860503,-2624.261216,-7309.96978,-4106,-7860,-458,-881,66,2926,59.52,64.97,60,64.90151173,0,0,0,-0.039881678
100,0,1.3,3,53.63636364,8650,-20738,3064,-1305,-2775,-7314,-4053.835885,-7986.148705,-484.875,-729.5320627,69.4375,2509.758744,59.49264401,65.00191533,60,64.9,-0.027355994,0.031915327,0,-0.001511735
100,0,1.3,3,54.54545455,8914,-20924,4456,-1346,-3087,-7079,-3918.062361,-8073.474893,-544,-594.9987337,77,2082.397589,59.46,65.04,60,64.89759945,-0.032644006,0.038084673,0,-0.002400549
100,0,1.3,3,55.45454545,8549.074558,-19619.37026,4073.341108,-1293.058824,-2954.844267,-6622.148485,-3729.757656,-8144.063635,-603.125,-468.2160379,84.5625,1684.087641,59.46,65.04,60,64.84814815,0,0,0,-0.049451303
100,0,1.3,3,56.36363636,7585.037641,-16254.79883,3086.483965,-1147.162067,-2595.610143,-5935.788263,-3520,-8220,-630,-340,88,1355,59.46,65.04,59.99642975,64.83,0,0,-0.003570245,-0.018148148
100,0,1.3,3,57.27272727,6217.998367,-11654.26239,1737.107872,-927.6998845,-2065.147237,-5077.509147,-3215.517942,-8324.492967,-270.0055096,-187.446753,88,1099.743255,59.46,65.04,59.9636812,64.83,0,0,-0.03274856,0
100,0,1.3,4,58.18181818,4644.065849,-6641.737609,266.8921283,-654.062431,-1419.30516,-4104.90095,-2876,-8386,262,-81,88,897,59.46,65.04,59.91506319,64.83,0,0,-0.048618002,0
100,0,1.3,4,59.09090909,3059.349205,-2041.201166,-1082.483965,-345.6398622,-713.933521,-3075.553485,-2650.850662,-8358.98861,628.0055096,-54.00571895,96.5,728.9116856,59.46,65.04053748,59.87205935,64.83,0,0.000537477,-0.043003847,0
100,0,1.3,4,60,1659.95755,1323.370262,-2069.341108,-21.82233346,-4.881931045,-2047.056564,-2380,-8274,822,-34,105,611,59.46,65.08373554,59.82875467,64.83,0,0.04319806,-0.043304673,0
100,0,1.3,4,60.90909091,642,2628,-2452,298,652,-1077,-1762,-7466,454,-6,43,556,59.46,65.13517671,59.83000857,64.7975293,0,0.051441172,0.001253895,-0.032470703
100,0,1.3,4,61.81818182,14,528,-1116,685,1323,-112,-1625.522225,-7521.282799,504.7119926,-11.21672867,50.31195335,568.3731551,59.46,65.17820244,59.87612917,64.69157227,0,0.043025733,0.046120601,-0.105957031
100,0,1.3,4,62.72727273,40.62597825,-745.6374171,-269.0070564,1032.956735,1685.598853,872.1372238,-1538.665449,-7663.854227,638.0331726,-26.42310916,69.16909621,602.9037144,59.46,65.18,59.91989379,64.69,0,0.001797558,0.043764616,-0.001572266
100,0,1.3,4,63.63636364,115.696401,-1718.485375,387.9409162,1347.996143,1952.053221,1854.721585,-1483.866914,-7858.798834,825.7413433,-50.95343323,94.95335277,655.7083185,59.46,65.18063356,59.9354081,64.69535722,0,0.000633562,0.015514314,0.005357216
100,0,1.3,4,64.54545455,232,-2106,652,1557,2161,2771,-1443.56386,-8071.201166,1039.614308,-84.14199261,123.0466472,722.9036084,59.46,65.23076199,59.84503562,64.80079178,0,0.050128425,-0.090372481,0.105434561
100,0,1.3,4,65.45454545,711.0782137,-1718.022854,34.65539305,1650.241231,2340.232273,3628.610684,-1400.193529,-8266.145773,1251.42987,-125.323079,148.8309038,800.6062247,59.46,65.28586638,59.83391602,64.83,0,0.05510439,-0.011119604,0.029208223
100,0,1.3,4,66.36363636,1286,-1200,-848,1735,2465,4351,-1336.193162,-8408.717201,1432.965833,-173.8309843,167.6880466,884.9328083,59.46,65.32825991,59.87932617,64.83,0,0.042393538,0.045410156,0
100,0,1.3,4,67.27272727,1536,-1006,-1278,1884,2527,4843,-1234,-8464,1556,-229,175,972,59.46,65.33,59.88,64.90616935,0,0.001740086,0.000673828,0.076169347
100,0,1.3,4,68.18181818,1728.282609,-1259.457549,-1566.209677,2083.619804,2464.995614,5359.486401,-1018,-7608,1622,-345,81,1093,59.46,65.33370096,59.88,64.97,0,0.003700964,0,0.063830653
100,0,1.3,4,69.09090909,1826,-1758,-1706,2274,2326,5912,-1029.961573,-7684.96,1547.952,-421.5634841,92.18226715,1207.81692,59.46,65.41885191,59.88,64.97,0,0.085150945,0,0
100,0,1.3,4,70,1737.820663,-2462.277688,-1482.684519,2421.734304,2033.389688,6581.296068,-1061.564719,-7868.48,1371.376,-482.8261918,120.1868014,1320.613236,59.46,65.48849025,59.88,64.97,0,0.069638343,0,0
100,0,1.3,4,70.90909091,1534.974659,-3340.219951,-1039.813482,2548.153883,1581.434346,7294.539926,-1106.387079,-8087.52,1160.624,-537.0071574,156.7002022,1429.601092,59.46,65.52804617,59.88,64.97,0,0.039555914,0,0
100,0,1.3,4,71.81818182,1310,-4010,-718,2622,1147,7856,-1158.006292,-8271.04,984.048,-592.3254153,193.4090686,1532.992632,59.46,65.64172999,59.88,64.99856934,0,0.113683827,0,0.028569335
100,0,1.3,4,72.72727273,1072,-4348,-612,2647,797,8192,-1210,-8348,910,-657,222,1629,59.46,65.78031911,59.87819483,65.04950601,0,0.138589114,-0.001805175,0.050936678
100,0,1.3,4,73.63636364,916.4008852,-4756.413571,-716.416,2697.059254,552.0373941,8573.399035,-1272,-7710,1094,-737,241,1713,59.46,65.86354568,59.83732535,65.10224529,0,0.083226573,-0.040869479,0.052739279
100,0,1.3,4,74.54545455,800.1553188,-5211.26089,-965.408,2770.312713,324.0170684,8990.226282,-1539.066587,-7914.296296,1268.996532,-809.5267302,264.8146518,1794.477238,59.46,65.97233621,59.79502181,65.11,0,0.108790528,-0.042303535,0.007754708
100,0,1.3,4,75.45454545,692.9093099,-5700.101424,-1262.592,2848.036546,134.4780456,9405.754012,-1938.422182,-8293.703704,1427.164932,-879.7963798,293.3391321,1877.138149,59.46,66.10896787,59.76135964,65.11,0,0.136631658,-0.033662171,0
100,0,1.3,4,76.36363636,564.3088673,-6210.494638,-1511.584,2911.506919,4.959348534,9783.254495,-2144,-8498,1496,-959,329,1974,59.48707252,66.20263661,59.76,65.13566667,0.027072517,0.093668747,-0.00135964,0.025666667
100,0,1.3,4,77.27272727,384,-6730,-1616,2942,-43,10086,-1975.936,-8470.336,1451.877493,-1054.056889,379.9553296,2092.629428,59.52501995,66.28895237,59.75821757,65.18959446,0.037947431,0.086315752,-0.001782427,0.053927797
100,0,1.3,4,78.18181818,44,-7282,-1552,2947,180,10295,-1575.168,-8404.368,1340.192479,-1161.52952,447.9004913,2230.406592,59.55010652,66.40360655,59.71755932,65.24082877,0.025086576,0.114654185,-0.04065825,0.051234304
100,0,1.3,4,79.09090909,-98.45578864,-7946.654954,-1480.065964,2927.707237,516.3187757,10513.45387,-1096.832,-8325.632,1191.968718,-1277.073707,525.5679881,2385.069043,59.57051844,66.51407797,59.67371591,65.29136019,0.020411913,0.110471423,-0.043843415,0.050531421
100,0,1.3,4,80,-193.5930735,-8690.985525,-1402.960165,2878.552632,951.8741124,10740.55281,-696.064,-8259.664,1038.229972,-1396.345262,605.6903233,2554.354329,59.57991107,66.56945298,59.64039703,65.32955212,0.009392629,0.055375004,-0.033318879,0.038191937
100,0,1.3,4,80.90909091,-272.4338216,-9531.323334,-1317.374283,2812.621711,1475.242393,10929.62534,-528,-8232,910,-1515,681,2736,59.58,66.47129108,59.64,65.32645004,8.89E-05,-0.098161898,-0.00039703,-0.003102087
100,0,1.3,4,81.81818182,-366,-10484,-1220,2743,2075,11034,-564.6705539,-8318.63951,796.1986839,-1639.318173,747.7272982,2934.42722,59.58063444,66.33162309,59.64,65.3159365,0.000634444,-0.139667988,0,-0.010513538
100,0,1.3,4,82.72727273,-484,-11718,-1094,2658,2894,11065,-659.2419825,-8571.002448,671.8745893,-1774.205911,809.4584895,3154.06992,59.59803156,66.24938851,59.64,65.30133247,0.017397112,-0.082234586,0,-0.014604029
100,0,1.3,4,83.63636364,-150,-12452,-736,2571,3378,11030,-788.5539359,-8977.755428,547.2445037,-1913.25784,869.960064,3392.684796,59.62444444,66.18138426,59.64,65.28555973,0.026412889,-0.068004248,0,-0.015772741
100,0,1.3,4,84.54545455,578.7908739,-12448.96081,-351.1576729,2452.781068,3355.674121,10831.43396,-929.4460641,-9527.56506,432.5252145,-2050.068587,932.998512,3648.028545,59.63983805,66.12508364,59.64,65.27154006,0.015393605,-0.056300618,0,-0.014019673
100,0,1.3,4,85.45454545,1738.27883,-12439.61088,81.16763118,2314.451113,3290.655234,10370.94923,-1058.758017,-10209.09796,337.9335092,-2178.232778,1002.340324,3917.857864,59.64,66.08138834,59.64,65.26219523,0.00016195,-0.043695303,0,-0.009344826
100,0,1.3,4,86.36363636,3144.00173,-12423.60162,522.0890892,2154.634821,3185.881462,9687.724511,-1153.329446,-11011.02073,273.6861752,-2291.34504,1081.75199,4199.92945,59.64,66.04139576,59.63010788,65.26,0,-0.039992576,-0.009892123,-0.002195231
100,0,1.3,4,87.27272727,4611.497435,-12400.58447,932.7198781,1971.956878,3044.290928,8820.93852,-1190,-11922,250,-2383,1175,4492,59.64,65.99703011,59.5368044,65.26,0,-0.04436565,-0.093303481,0
100,0,1.3,4,88.18181818,5956.303808,-12370.21087,1274.173175,1765.04197,2868.821758,7809.769965,341,-14233.4627,868.646867,-2451.694534,1304.344762,4858.166338,59.65084424,65.95085878,59.52,65.27418914,0.010844239,-0.046171331,-0.016804396,0.014189142
100,0,1.3,4,89.09090909,6993.958709,-12332.13223,1507.562157,1532.514782,2662.412074,6693.397555,1872,-16362,1772,-2509,1465,5169,59.6923586,65.91158625,59.52,65.32554271,0.041514365,-0.039272533,0,0.051353564
100,0,1.3,4,90,7540,-12286,1594,1273,2428,5511,1634.84,-16922.27791,2321.358202,-2567.726568,1626.504391,5349.790099,59.72956697,65.91,59.49246074,65.3788388,0.03720837,-0.001586247,-0.02753926,0.05329609
100,0,1.3,4,90.90909091,7764.607748,-11786.15769,1512.740747,871.4360728,1796.318434,3613.264667,991.12,-17413.01299,2832.34689,-2630.304701,1785.95629,5519.584847,59.76752461,65.91902344,59.44765312,65.4,0.03795764,0.009023438,-0.04480762,0.021161203
100,0,1.3,4,91.81818182,7948.373553,-10751.86239,1307.641991,324.7965442,728.2830529,940.2230032,42.48,-17836.69398,3307.574781,-2694.37118,1947.891684,5676.491661,59.80525318,66.0871875,59.40578422,65.4,0.037728562,0.168164063,-0.041868899,0
100,0,1.3,4,92.72727273,8072.452583,-9730.135896,1036.72224,-200.2412566,-277.8938552,-1584.930162,-1109.44,-18195.80961,3749.650593,-2757.562788,2116.846557,5818.617953,59.84628409,66.07999186,59.4,65.4,0.041030915,-0.007195642,-0.005784222,0
100,0,1.3,4,93.63636364,8118,-9268,758,-537,-724,-3039,-2363,-18492.84862,4161.183043,-2817.516309,2297.356893,5944.07114,59.87960297,65.9813963,59.4,65.4,0.033318879,-0.098595563,0,0
100,0,1.3,4,94.54545455,7969.185185,-12220.44444,372.9108228,-693.207289,-242.8148148,-3540.357155,-3616.56,-18730.29974,4544.780851,-2871.868526,2493.958678,6050.958636,59.88,65.98,59.4,65.43063056,0.00039703,-0.001396296,0,0.030630558
100,0,1.3,4,95.45454545,7692.814815,-17703.55556,-66.43347751,-806.0411748,650.8148148,-3881.405488,-4768.48,-18910.65171,4903.052732,-2918.25622,2711.187897,6137.387855,59.88,65.96888889,59.4,65.47932024,0,-0.011111111,0,0.048689682
100,0,1.3,4,96.36363636,7544,-20656,-276,-903,1132,-4150,-5717.12,-19036.39325,5238.607406,-2954.316175,2953.580533,6201.466212,59.88,65.85829218,59.4,65.5321543,0,-0.110596708,0,0.052834061
100,0,1.3,4,97.27272727,7637.5,-19959.82031,2.609375,-1004.858329,1027.585938,-4414.651991,-6360.84,-19110.0131,5554.053589,-2977.685174,3225.672573,6241.301122,59.88174672,65.83,59.4,65.54,0.001746721,-0.028292181,0,0.007845699
100,0,1.3,4,98.18181818,7884,-18124.4375,737.125,-1110.492085,752.3125,-4678.265425,-6598,-19134,5852,-2986,3532,6255,59.89342553,65.83,59.4,65.54,0.011678807,0,0,0
100,0,1.3,4,99.09090909,8232.5,-15529.58594,1775.578125,-1214.551651,363.1328125,-4930.284297,-1028,-15528.29625,6169.516524,-2569.927157,4124.239279,4579.369963,59.91091824,65.83,59.38796843,65.54929872,0.017492711,0,-0.012031572,0.009298724
100,0,1.3,4,100,8632,-12555,2966,-1311.687409,-83,-5160.1526,4542,-10636,6342,-1879,4554,2265,59.92810496,65.83,59.35911075,65.57374932,0.017186716,0,-0.028857679,0.0244506
100,0,1.3,1,0,9031.5,-9580.414062,4156.421875,-1396.549741,-529.1328125,-5357.314328,4250.740525,-8111.461758,6157.871928,-1305.471037,4213.883382,1073.104681,59.93886578,65.83,59.32428252,65.60818344,0.010760822,0,-0.034828233,0.034434118
100,0,1.3,1,0.952380952,9380,-6985.5625,5194.875,-1463.789028,-918.3125,-5511.213475,3499.597668,-5741.12319,5670.035679,-700.6980974,3336.740525,37.10926878,59.94,65.81581086,59.29433928,65.64743272,0.001134221,-0.014189142,-0.029943235,0.039249278
100,0,1.3,1,1.904761905,9626.5,-5150.179687,5929.390625,-1508.055654,-1193.585938,-5611.294034,2472.524781,-3610.343569,4975.313202,-89.27621702,2137.381924,-865.8899731,59.94,65.76445729,59.2801366,65.6863288,0,-0.051353564,-0.014202682,0.038896081
100,0,1.3,1,2.857142857,9720,-4454,6208,-1524,-1298,-5647,1353.475219,-1804.482166,4170.526447,504.1995686,830.6180758,-1658.796783,59.9755957,65.72649368,59.28,65.72811207,0.035595703,-0.037963613,-0.000136599,0.041783269
100,0,1.3,1,3.80952381,9667.646839,-4937.395436,5074.25,-1314.338846,-1110.907997,-5626.884762,326.4023324,-408.8982557,3352.497361,1055.134224,-368.7405248,-2364.514899,60,65.65864075,59.28553711,65.77246014,0.024404297,-0.067852931,0.005537109,0.044348072
100,0,1.3,1,4.761904762,9529.724903,-6007.054495,2580,-849.9869224,-699.2546574,-5572.526033,-424.7405248,491.0488906,2618.047896,1538.932713,-1245.883382,-3005.948059,60,65.47120652,59.33446289,65.81399394,0,-0.187434227,0.048925781,0.041533803
100,0,1.3,1,5.714285714,9334.940516,-7092.186307,85.75,-377.8915377,-287.4739896,-5492.904287,-716,810,2064,1931,-1586,-3606,59.98101563,65.31731869,59.34,65.88965172,-0.018984375,-0.153887835,0.005537109,0.075657774
100,0,1.3,1,6.666666667,9112,-7622,-1048,-145,-100,-5397,-705.8616295,690.6365234,1626.748795,2269.576811,-1565.194701,-4200.186321,59.94,65.18,59.34,65.98,-0.041015625,-0.137318688,0,0.090348283
100,0,1.3,1,7.619047619,8735.990276,-7672.652683,-987.0946502,-118.3882515,-99.52899127,-5188.099358,-677.6385981,354.4877651,1182.958096,2606.365731,-1506.81055,-4802.317313,59.94,64.98278896,59.34045471,66.03746805,0,-0.197211039,0.000454709,0.057468051
100,0,1.3,1,8.571428571,8114.443443,-7704.577386,-823.8683128,-99.25029322,-99.13139133,-4795.212693,-634.6190259,-165.5337672,739.8528899,2936.964511,-1416.895168,-5402.73876,59.94,64.79936719,59.34179655,66.09384433,0,-0.183421774,0.001341843,0.056376278
100,0,1.3,2,9.523809524,7324.733591,-7723.397122,-587.5555556,-85.71052149,-98.80239498,-4265.906703,-580.0910332,-836.5155659,304.6581625,3256.970903,-1301.496174,-5991.79644,59.94,64.66472832,59.3439921,66.14887439,0,-0.134638871,0.002195549,0.055030057
100,0,1.3,2,10.47619048,6444.234806,-7734.734906,-307.3909465,-75.89333258,-98.537197,-3647.748085,-517.3427401,-1625.545124,-115.4010989,3561.982658,-1166.661188,-6559.836137,59.94,64.56302922,59.34700793,66.20230377,0,-0.101699095,0.003015827,0.053429388
100,0,1.3,2,11.42857143,5550.321178,-7744.213751,-12.6090535,-67.92312276,-98.33099217,-2988.303538,-449.6622667,-2499.709933,-513.0999076,3847.597528,-1018.437831,-7097.203629,59.94,64.48,59.35081061,66.25387804,0,-0.083029222,0.003802678,0.05157427
100,0,1.3,2,12.38095238,4720.366795,-7757.456669,267.5555556,-59.92428831,-98.17897527,-2335.139758,-380.3377333,-3426.097486,-881.2132766,4109.413266,-862.8737222,-7594.2447,59.90214126,64.39107062,59.35536671,66.30334275,-0.037858742,-0.088929381,0.004556101,0.049464704
100,0,1.3,2,13.33333333,4031.745746,-7780.086674,503.8683128,-50.02122552,-98.07634109,-1735.823444,-312.6572599,-4371.795275,-1212.516219,4343.027623,-706.0164814,-8041.30513,59.88,64.32225796,59.3606428,66.35044344,-0.022141258,-0.068812659,0.005276097,0.04710069
100,0,1.3,2,14.28571429,3561.832118,-7817.72678,667.0946502,-36.33833065,-98.0182844,-1237.921292,-249.9089668,-5303.890793,-1499.783749,4544.03835,-553.9137288,-8428.730699,59.88,64.2738564,59.36660547,66.39492567,0,-0.048401556,0.005962666,0.044482228
100,0,1.3,2,15.23809524,3388,-7876,728,-17,-98,-889,-195.3809741,-6189.471532,-1735.790879,4708.043199,-412.6130845,-8746.86719,59.88,64.29352538,59.37322128,66.43653498,0,0.019668973,0.006615807,0.041609318
100,0,1.3,2,16.19047619,3470,-8404,300,18,-122,-687,-152.3614019,-6995.624984,-1913.312622,4830.639923,-288.1621682,-8986.060383,59.88,64.33937586,59.3804568,66.47501694,0,0.04585048,0.00723552,0.038481959
100,0,1.3,2,17.14285714,2969.367347,-8189.93633,317.2183377,6,-140.0875502,-438.2567817,-124.1383705,-7689.438643,-2025.123991,4907.426273,-186.6086001,-9136.656059,59.8444043,64.34,59.3882786,66.5101171,-0.035595703,0.000624143,0.007821806,0.035100153
100,0,1.3,2,18.0952381,2138,-7944,366,-6,-150,-261,-114,-8238,-2064,4934,-114,-9189,59.82553711,64.34586439,59.39665327,66.54158099,-0.018867188,0.005864389,0.008374665,0.031463898
100,0,1.3,2,19.04761905,1400.750693,-7891.06367,1106.781662,3.5,-151.0492459,-207.5568862,-221.8937513,-8655.777379,-2042.397313,4916.060433,-58.15422425,-9116.613755,59.87446289,64.40095923,59.40554736,66.56915419,0.048925781,0.05509484,0.008894096,0.027573194
100,0,1.3,2,20,824,-7870,1816,13,-152,-186,-527.9596988,-8989.157114,-1981.116222,4862.538043,-3.082056442,-8909.18307,59.87938139,64.41843302,59.41492746,66.59258223,0.004918496,0.017473792,0.0093801,0.023428043
100,0,1.3,2,20.95238095,499.671911,-7943.125,1644.177107,-10.23823072,-157.1359796,-213.0335821,-1005.774883,-9253.103709,-1885.447181,4773.877295,50.87949239,-8581.300018,59.87656797,64.42830125,59.42476014,66.61161068,-0.002813414,0.00986823,0.009832676,0.019028444
100,0,1.3,2,21.9047619,228.7639209,-8104,1256.972285,-66.63528193,-167.4429291,-282.0895522,-1628.916344,-9462.581672,-1760.680643,4650.522655,103.3934112,-8147.556673,59.87188894,64.43600045,59.43501196,66.62598507,-0.004679033,0.007699201,0.010251824,0.014374396
100,0,1.3,2,22.85714286,42.97397033,-8264.875,846.7813203,-136.2146922,-180.278414,-375.1007463,-2370.961124,-9632.555509,-1612.107063,4492.918588,154.1226889,-7622.545108,59.86579383,64.44196889,59.44564951,66.63545097,-0.006095105,0.005968434,0.010637545,0.0094659
100,0,1.3,2,23.80952381,-26,-8338,606,-199,-193,-474,-3205.486261,-9777.989726,-1445.016894,4301.50956,202.7303146,-7020.857397,59.8587322,64.44664481,59.45663935,66.63975393,-0.007061631,0.004675927,0.010989839,0.004302956
100,0,1.3,2,24.76190476,13.12847483,-8334.552968,517.9481395,-252.1550471,-204.1493672,-587.4032425,-4106.068797,-9913.848829,-1264.70059,4076.740038,248.8792771,-6357.085614,59.85115359,64.45046649,59.47043508,66.63767459,-0.00757861,0.00382168,0.013795727,-0.002079339
100,0,1.3,2,25.71428571,120.4162284,-8325.101427,437.7556554,-305.9777698,-214.393942,-731.8207861,-5046.285772,-10055.09733,-1076.448606,3819.054485,292.2325654,-5645.821832,59.84350755,64.45387219,59.49337858,66.62699729,-0.007646042,0.003405695,0.0229435,-0.010677295
100,0,1.3,2,26.66666667,280.7167543,-8310.979715,365.5334857,-360.192849,-224.2799095,-901.0270415,-5999.714228,-10216.69972,-885.5513943,3528.897368,332.4531684,-4901.658125,59.83624362,64.45730016,59.52419184,66.608998,-0.007263927,0.00342797,0.030813264,-0.017999292
100,0,1.3,2,27.61904762,478.8835462,-8293.522164,301.3925683,-414.5249652,-234.3534548,-1088.796419,-6939.931203,-10413.62052,-697.2994097,3206.713153,369.2040753,-4139.186566,59.82981136,64.46118866,59.56111415,66.5851559,-0.006432265,0.003888505,0.03692231,-0.023842097
100,0,1.3,2,28.57142857,699.7700977,-8274.06311,245.4438412,-468.6987994,-245.160763,-1288.903331,-7840.513739,-10660.82423,-516.983106,2852.946305,402.1482748,-3372.99923,59.8246603,64.46597596,59.60238479,66.55695019,-0.005151057,0.004787302,0.041270638,-0.028205711
100,0,1.3,2,29.52380952,928.2299023,-8253.93689,197.7982423,-522.4390321,-257.2480193,-1495.122186,-8675.038876,-10973.27536,-349.8929371,2468.04129,430.9487559,-2617.688189,59.82124,64.47210032,59.64624303,66.52586006,-0.003420302,0.006124359,0.043858248,-0.031090134
100,0,1.3,2,30.47619048,1149.116454,-8234.477836,158.5667096,-575.4703441,-271.1614087,-1701.227396,-9417.083656,-11365.93842,-201.3193568,2052.442573,455.2685077,-1887.845518,59.82,64.48,59.69092818,66.49336469,-0.00124,0.007899676,0.044685141,-0.032495366
100,0,1.3,2,31.42857143,1347.283246,-8217.020285,127.8601811,-627.5174162,-287.4471164,-1900.993372,-10040.22512,-11853.7779,-76.55281905,1606.59462,474.770519,-1198.06329,59.82647689,64.49061891,59.73467949,66.46094329,0.006476893,0.010618913,0.043751315,-0.032421406
100,0,1.3,2,32.38095238,1507.583772,-8202.898573,105.7895947,-678.304929,-306.6513274,-2088.194524,-10518.0403,-12451.75832,19.11622227,1130.941896,489.1177789,-562.9335785,59.84182764,64.50400041,59.77573626,66.43007503,0.015350747,0.013381499,0.041056772,-0.030868255
100,0,1.3,2,33.33333333,1614.871525,-8193.447032,92.46588833,-727.5575634,-329.3202269,-2256.605263,-10824.10625,-13174.84419,80.39731325,625.9288676,497.9732762,2.951542679,59.85993234,64.5192319,59.81233777,66.40223912,0.018104701,0.01523149,0.036601511,-0.027835913
100,0,1.3,2,34.28571429,1654,-8190,88,-775,-356,-2400,-10932,-14038,102,92,501,485,59.8746711,64.53540079,59.84272331,66.37891474,0.014738757,0.016168886,0.030385533,-0.02332438
100,0,1.3,2,35.23809524,1498.923591,-8528.518519,129.9259259,-826.1427532,-434.0467164,-2511.337842,-9666,-32768,-2674,-1009,446,871,59.8799843,64.55159783,59.86513214,66.36158108,0.005313207,0.016197044,0.022408836,-0.017333656
100,0,1.3,2,36.19047619,1080.511047,-9374.814815,234.7407407,-882.3960574,-584.659797,-2598.643488,-8833.259622,-20386,2737,-353.5,378.9192308,2960.847919,59.8781457,64.56749974,59.87780356,66.35171734,-0.001838608,0.015901909,0.012671422,-0.00986374
100,0,1.3,2,37.14285714,468.9873911,-10475,371,-937.3341735,-769.1504537,-2678.289731,-7680,-8004,8148,302,339,4751,59.87340519,64.58329429,59.88,66.35,-0.004740504,0.015794549,0.002196435,-0.001717341
100,0,1.3,2,38.0952381,-265.4223513,-11575.18519,507.2592593,-984.5313621,-948.8298985,-2766.649367,-2958,-8360,2282,-1127,2229,2978,59.86598516,64.5990266,59.88,66.35,-0.007420031,0.015732314,0,0
100,0,1.3,2,39.04761905,-1052.493156,-12421.48148,612.0740741,-1017.561884,-1085.009343,-2880.095192,8606,-2832,-2910,-1864,2161,3218,59.85610797,64.61474181,59.88376325,66.33188399,-0.009877192,0.015715204,0.003763252,-0.018116009
100,0,1.3,2,40,-1822,-12760,654,-1030,-1139,-3035,12372,-4392,-16264,-2317,-798,4860,59.84399598,64.63048503,59.89978295,66.2513667,-0.012111985,0.01574322,0.016019701,-0.080517294
100,0,1.3,2,40.95238095,-2708,-11302,-300,-1025,-963,-3357,3858,-7306,-9414,-1424,-2582,5174,59.82987157,64.64630139,59.92381668,66.12191854,-0.01412441,0.015816361,0.024033726,-0.129448161
100,0,1.3,2,41.9047619,-920,-10796,-1230,-1004,-964,-3743,-4674,-14522,5696,-739,-1091,5645,59.81395711,64.66223602,59.95085566,65.96059316,-0.015914468,0.015934627,0.027038985,-0.161325375
100,0,1.3,2,42.85714286,-550,-10332,-240,-990,-1055,-3966,-10610,-9546,10362,-1036,-219,5429,59.79647495,64.67833404,59.97589114,65.78444423,-0.017482159,0.016098019,0.025035479,-0.176148935
100,0,1.3,2,43.80952381,-958,-11896,-112,-1132,-1115,-4541,-9550.355993,-8641.313808,3115,-1809.85355,-335.5,5856,59.77764747,64.69464057,59.99391435,65.61052538,-0.018827482,0.016306536,0.018023207,-0.173918842
100,0,1.3,2,44.76190476,-1188,-14206,274,-1154,-975,-4903,-6982,-8330,-4132,-2386,-452,6283,59.75769703,64.71120075,59.99983805,65.45529723,-0.019950438,0.016560178,0.0059237,-0.155228152
100,0,1.3,2,45.71428571,-1777.161453,-15809.05995,798.7856464,-1134.873541,-1006.958156,-5261.914326,-552,-9286,-3116,-1681,-419,6110,59.736846,64.7280597,59.98444444,65.27717138,-0.020851026,0.016858946,-0.015393605,-0.178125847
100,0,1.3,2,46.66666667,-2668.643514,-17237.1644,1414.309464,-1083.24611,-1093.97175,-5620.215906,-3766,-7412,-312,-1422,-243,5774,59.71531676,64.74526253,59.95803156,65.09379826,-0.021529247,0.017202839,-0.026412889,-0.183373125
100,0,1.3,2,47.61904762,-3482.303818,-18261.68665,1926.178549,-1007.745623,-1222.749469,-5963.659532,-6484,-7876,540,-1576,81,4931,59.69333166,64.76285439,59.94063444,64.97845619,-0.0219851,0.017591858,-0.017397112,-0.115342067
100,0,1.3,3,48.57142857,-3838,-18654,2140,-917,-1380,-6278,-5804.581295,-7900.447975,326.8888889,-1466.977366,75.81481481,4385.126031,59.67111307,64.78088039,59.94,64.94985884,-0.022218586,0.018026001,-0.000634444,-0.028597357
100,0,1.3,3,49.52380952,-3118.152052,-17064.06011,1516.397165,-717.7366026,-1681.39275,-6571.813495,-4496.718147,-7910.096509,-68.88888889,-1235.288065,66.18518519,3948.476315,59.64888337,64.79938566,59.94,64.92928174,-0.022229704,0.01850527,0,-0.020577091
100,0,1.3,3,50.47619048,-1924,-14496,760,-543,-2076,-6808,-3656,-7928,-282,-1024,61,3525,59.62686491,64.81841533,59.94,64.91400031,-0.022018455,0.019029665,0,-0.015281434
100,0,1.3,3,51.42857143,-982,-12628,582,-514,-2434,-6951,-3466.673168,-8046.234092,-253.504,-877.4273287,66.824,3063.397533,59.60528007,64.83801451,59.94,64.90421302,-0.021584838,0.019599184,0,-0.009787293
100,0,1.3,3,52.38095238,1058,-12888,326,-529,-2386,-7267,-3352.598499,-8285.203354,-185.552,-742.719762,80.712,2593.360477,59.58435122,64.85822834,59.94,64.90011835,-0.020928854,0.020213829,0,-0.004094666
100,0,1.3,3,53.33333333,6128,-21072,684,-744,-1805,-8128,-3268.787247,-8560.455569,-104.448,-617.198531,97.288,2140.324655,59.56430071,64.87910194,59.94411648,64.9,-0.020050503,0.0208736,0.00411648,-0.000118352
100,0,1.3,3,54.28571429,9570,-22796,3514,-658,-2371,-7709,-3170.250663,-8787.538523,-36.496,-498.1848667,111.176,1729.725889,59.54535093,64.90068044,59.95772928,64.9,-0.018949784,0.021578495,0.0136128,0
100,0,1.3,3,55.23809524,8994,-18748,6436,-793,-3417,-6758,-3012,-8882,-8,-383,117,1387,59.52772423,64.92300895,59.97537408,64.9,-0.017626698,0.022328517,0.0176448,0
100,0,1.3,3,56.19047619,5156,-15182,7682,-996,-3987,-5474,-2682.865169,-8787.93986,-129,-255.786884,77.5,1068.987035,59.51164299,64.94613262,59.99129088,64.9,-0.016081244,0.023123663,0.0159168,0
100,0,1.3,3,57.14285714,-2660,-7734,8036,-1135,-5096,-2798,-2296,-8618,-250,-172,38,896,59.49732957,64.97009655,59.99971968,64.9,-0.014313423,0.023963935,0.0084288,0
100,0,1.3,3,58.0952381,-643,-4576.710878,4202.050081,-974.9851681,-4260.398719,-3126,-1970.478517,-8431.27878,-210.6638937,-146.8386192,40.76638357,886.8009803,59.48500633,64.99494588,59.99974939,64.89925982,-0.012323234,0.024849332,2.97E-05,-0.000740184
100,0,1.3,4,59.04761905,1374,-2314,-278,-650,-2859,-3454,-1639.871057,-8193.918941,-103.1245436,-125.8926401,48.41855749,879.584128,59.47489565,65.02072574,59.99874364,64.89645004,-0.010110678,0.025779854,-0.001005753,-0.002809778
100,0,1.3,4,60,340.1880346,443.5208547,-1366.050081,-144.0760779,-1637.714758,-2779.628378,-1317.419217,-7934.847897,56.91459699,-109.0365263,59.98605653,874.1428037,59.4672199,65.04748124,59.99698977,64.89188719,-0.007675754,0.026755502,-0.001753866,-0.004562846
100,0,1.3,4,60.95238095,-1276,2000,-1808,382,-569,-1600,-1016.364594,-7682.993066,253.7500749,-96.14474168,74.49841552,870.2703681,59.46220144,65.07525751,59.99451064,64.8859365,-0.005018463,0.027776275,-0.002479129,-0.005950691
100,0,1.3,4,61.9047619,-2338,1298,-456,684,107,-511,-749.9487857,-7467.281862,471.6784369,-87.09174991,90.98516922,867.7601818,59.46006263,65.10409969,59.9913291,64.87896319,-0.002138804,0.028842173,-0.003181544,-0.006973314
100,0,1.3,4,62.85714286,-2118.311894,566.8604083,-466.2548819,993.4187123,710.495837,505.8714609,-531.4133886,-7316.641701,694.9962296,-81.75201477,108.4758525,866.4056056,59.46,65.13644517,59.98746799,64.87133247,-6.26E-05,0.032345481,-0.00386111,-0.007630715
100,0,1.3,4,63.80952381,-1606.331717,-183.6723299,-492.3463517,1311.358087,1301.7463,1490.133698,-374,-7260,908,-80,126,866,59.46,65.17605706,59.98295016,64.86340958,0,0.039611893,-0.004517826,-0.007922893
100,0,1.3,4,64.76190476,-1022.685681,-895.8689032,-527.2646456,1581.118418,1751.373612,2412.329087,-252.6939918,-7492.814815,1188.346196,-132.6596901,151.2781902,920.8454429,59.46,65.22089297,59.97779847,64.85555973,0,0.044835912,-0.005151694,-0.007849848
100,0,1.3,4,65.71428571,-588,-1512,-564,1746,1930,3243,-155.6803292,-7925.185185,1496.728654,-246.4304913,181.0781195,1044.357552,59.46,65.26874598,59.97203576,64.84814815,0,0.047853007,-0.005762713,-0.007411581
100,0,1.3,4,66.66666667,-300.3207989,-2044.736432,-598.1136619,1835.616416,1916.550597,4008.422599,-116,-8158,1642,-355,198,1175,59.46,65.31740916,59.96568487,64.84154006,0,0.048663177,-0.006350883,-0.006608092
100,0,1.3,4,67.61904762,-16.03134678,-2546.568104,-631.7346145,1916.974366,1877.717213,4751.426345,-147.1693055,-8068.56,1609.42123,-434.9276086,201.4467492,1295.755348,59.46,65.36467558,59.95876867,64.83610068,0,0.047266423,-0.006916204,-0.00543938
100,0,1.3,4,68.57142857,256.7364296,-3019.494343,-667.7046981,1989.463814,1815.772085,5467.383564,-224.7879165,-7855.28,1526.50369,-509.3851524,203.2007355,1426.751436,59.46,65.40823661,59.95130999,64.83219523,0,0.043561028,-0.007458676,-0.003905446
100,0,1.3,4,69.52380952,509.8506036,-3465.514476,-708.8657527,2052.474725,1732.98745,6151.66658,-325.0218747,-7600.72,1415.475535,-581.9788918,204.4313472,1562.16985,59.46,65.44754496,59.9433317,64.83018894,0,0.039308355,-0.007978299,-0.002006289
100,0,1.3,4,70.47619048,735.1792483,-3886.627829,-758.0596187,2105.397064,1631.635548,6799.647718,-424.037222,-7387.44,1298.56492,-656.3150875,206.3079726,1696.192176,59.46351109,65.49497126,59.93173661,64.83430801,0.003511093,0.047426296,-0.011595087,0.004119069
100,0,1.3,4,71.42857143,924.590437,-4284.833732,-818.1281362,2147.620796,1513.988614,7406.699304,-498,-7298,1198,-736,210,1823,59.48473031,65.5496715,59.90629472,64.85823035,0.021219214,0.054700243,-0.025441891,0.023922337
100,0,1.3,4,72.38095238,1069.952243,-4662.131509,-891.9131455,2178.535886,1382.318886,7968.193663,-537.8736859,-7538.074074,1096.452139,-837.0482345,256.8101591,1943.881575,59.50961327,65.61576538,59.87151382,64.89819665,0.024882964,0.066093875,-0.034780902,0.039966304
100,0,1.3,4,73.33333333,1163.13274,-5020.52049,-982.2564867,2197.532299,1238.898602,8479.50312,-570.5305891,-7983.925926,996.892736,-943.0555638,338.5161906,2060.589081,59.52,65.69992601,59.83344923,64.94857162,0.010386729,0.084160636,-0.038064583,0.050374963
100,0,1.3,4,74.28571429,1196,-5362,-1092,2204,1086,8936,-626,-8224,952,-1009,382,2168,59.52,65.84351401,59.7981563,65.00371993,0,0.143587998,-0.035292933,0.055148316
100,0,1.3,4,75.23809524,1164,-5658,-1400,2158,829,9296,-806,-7528,1320,-1030,341,2261,59.52,65.964245,59.77169035,65.0580063,0,0.120730989,-0.026465952,0.054286363
100,0,1.3,4,76.19047619,1194,-6006.823224,-1571.647819,2140.139541,549.3450623,9708.489759,-762.602067,-7562.142397,1269.176955,-1070.208205,351.2068874,2370.061004,59.52,66.07483458,59.76010671,65.1057954,0,0.11058958,-0.01158364,0.047789103
100,0,1.3,4,77.14285714,1224,-6446,-1650,2122,347,10161,-642.3418024,-7662.239131,1132.971193,-1130.281222,379.9525008,2483.201982,59.52,66.18446326,59.76,65.14838298,0,0.109628679,-0.000106707,0.042587578
100,0,1.3,4,78.0952381,1086,-7124,-1404,2073,283,10664,-460.1195078,-7824.794515,935.7777778,-1207.266586,424.4242675,2602.953552,59.52,66.28861862,59.75971584,65.18715988,0,0.104155361,-0.00028416,0.038776903
100,0,1.3,4,79.04761905,944.020362,-7794.872023,-1235.362922,1995.286747,370.3031112,11060.47511,-230.8354847,-8046.312862,701.9917695,-1298.211832,481.8096143,2731.846331,59.52,66.38278824,59.75046144,65.22450397,0,0.094169627,-0.0092544,0.037344094
100,0,1.3,4,80,800.0739065,-8457.937663,-1095.853466,1897.207446,591.89163,11416.45109,30.60996506,-8323.298485,456.0082305,-1400.164495,549.2959685,2872.410939,59.52,66.46245972,59.73026304,65.26343203,0,0.079671476,-0.0201984,0.038928057
100,0,1.3,4,80.95238095,636.0904977,-9203.034471,-971.9172773,1808.024421,887.2843337,11722.95152,309.31654,-8652.255697,222.2222222,-1510.172108,624.0707571,3027.177991,59.52,66.52312063,59.70200064,65.30259332,0,0.060660908,-0.0282624,0.039161294
100,0,1.3,4,81.9047619,434,-10120,-850,1757,1196,11971,590.3839386,-9029.688811,25.02880658,-1625.282207,703.3214072,3198.678107,59.52,66.56025855,59.66855424,65.34063713,0,0.037137925,-0.0334464,0.038043807
100,0,1.3,4,82.85714286,126,-11502,-732,1742,1563,12147,858.9118591,-9452.102141,-111.1769547,-1742.542326,784.2353458,3389.441904,59.52012713,66.5689197,59.63280384,65.37621273,0.000127133,0.008661146,-0.0357504,0.035575595
100,0,1.3,4,83.80952381,389.0727869,-12830.21092,-269.9095435,1787.37037,2140.391794,12085.60171,1100,-9916,-162,-1859,864,3602,59.52434328,66.53477141,59.59762944,65.40796938,0.004216147,-0.034148291,-0.0351744,0.031756658
100,0,1.3,4,84.76190476,1028.590018,-14091.62388,407.1563394,1871.62963,2779.627265,11928.64787,1355.317566,-10647.73328,-10.47862064,-1987.663295,968.4286339,3896.818133,59.53381344,66.46390205,59.56591104,65.43455638,0.009470165,-0.070869355,-0.0317184,0.026586996
100,0,1.3,4,85.71428571,1820,-15100,754,1917,3086,11717,1616.145253,-11838.03886,410.3760921,-2132.94506,1090.022276,4276.103742,59.54756473,66.37157106,59.54052864,65.45462299,0.013751288,-0.092330996,-0.0253824,0.02006661
100,0,1.3,4,86.66666667,2931.535356,-15895.93489,722.5878877,1850.025572,3092.59314,11345.96271,1792,-13430,1050,-2279,1176,4655,59.56462425,66.27303784,59.52436224,65.46681849,0.017059516,-0.098533216,-0.0161664,0.012195498
100,0,1.3,4,87.61904762,4270,-16384,656,1778,3095,10814,1866,-16234,2794,-2421,1213,5005,59.5848367,66.18254733,59.52,65.47,0.020212452,-0.090490511,-0.00436224,0.003181511
100,0,1.3,4,88.57142857,5534,-16516,548,1772,2957,10155,2085.142409,-16546.80904,3293.227231,-2405,1403.758734,5520.145356,59.62393665,66.08684758,59.52,65.47,0.039099947,-0.095699754,0,0
100,0,1.3,4,89.52380952,8043.757907,-15828.31943,1098.148148,1712.903703,2469.587516,8454.380653,2386,-16818,3482,-2389,1566,6062,59.66144794,65.98795059,59.51592796,65.47063962,0.037511295,-0.098896985,-0.004072043,0.000639624
100,0,1.3,4,90.47619048,11067.87895,-14419.30554,2119.851852,1577.325541,1643.042114,5896.590349,2660.461243,-18452.34746,2663,-2427.5,1537.5,6560.938714,59.69647657,65.91091054,59.49410745,65.47445722,0.035028629,-0.077040054,-0.021820503,0.003817593
100,0,1.3,4,91.42857143,12536,-13270,2670,1398,807,3502,2956,-20204,1844,-2466,1509,6893,59.73155411,65.94635355,59.45971891,65.48152895,0.035077536,0.035443014,-0.034388538,0.007071736
100,0,1.3,4,92.38095238,11946.75293,-12751.41929,2087.8125,1008.463149,-71.16910089,1439.221879,3298,-20708,2542,-2333,1581,6978,59.76649567,66.03344392,59.41994408,65.49164103,0.03494156,0.087090372,-0.039774839,0.010112076
100,0,1.3,4,93.33333333,10595.17449,-12414.22223,807,398.8561321,-1052.955867,-612.2915881,2298.366244,-17375,2173,-2239.25,1690.756069,7175.721594,59.80191562,66.10771117,59.38196467,65.50457964,0.035419957,0.07426725,-0.037979406,0.012938613
100,0,1.3,4,94.28571429,9105.508798,-12008.91405,-473.8125,-163.1789505,-1852.0147,-2365.909261,34,-14042,1804,-2193,1864,7422,59.84254113,66.10846436,59.35296243,65.52013099,0.040625506,0.000753181,-0.029002238,0.015551346
100,0,1.3,4,95.23809524,8102,-11286,-1056,-410,-2182,-3535,-6218.366244,-18135,2691.14189,-2284.422261,2248.403517,7682.559441,59.87954002,66.05463135,59.3401191,65.53808126,0.036998888,-0.053833008,-0.012843335,0.017950275
100,0,1.3,4,96.19047619,7735.778605,-5520.052487,-473.7037037,5.333333333,-1734.943584,-4285.903803,-11206,-22228,4276,-2455,2834,7836,59.88,66.01058366,59.34,65.57623517,0.000459982,-0.044047686,-0.000119097,0.038153907
100,0,1.3,4,97.14285714,7484.900972,4177.30709,607.7037037,776.6666667,-732.9982797,-4861.951902,-8918,-20020,5832,-2645,3636,6685,59.88019203,65.96714699,59.34,65.62160469,0.000192033,-0.04343667,0,0.045369521
100,0,1.3,4,98.0952381,6964,9300,1190,1192,315,-5092,-2234.251229,-16027.58377,6882.945799,-2385.493389,4364.775892,4466.119903,59.88339546,65.9268009,59.34,65.65928956,0.003203429,-0.04034609,0,0.037684865
100,0,1.3,4,99.04761905,-5168.092085,-1586,-9480,-86.5,1361.727975,-4983.5,2878,-11146,7394,-1871,4757,2754,59.88996955,65.88860178,59.34,65.69536892,0.006574088,-0.038199118,0,0.036079365
100,0,1.3,4,100,-16908,-12472,-20150,-1365,2259,-4875,1771.494076,-6376.794321,3350.519466,-1169.752392,3580.63933,2433.668763,59.89916702,65.85033879,59.34,65.7297502,0.009197471,-0.038262992,0,0.03438128
100,0,1.3,1,0,940,-12172,-7164,-23,2721,-6312,-408,-1504,-1638,-376,1748,2312,59.9102406,65.80980108,59.34,65.76234081,0.011073578,-0.040537713,0,0.032590609
100,0,1.3,1,0.925925926,9910.704783,-11201.60031,7777.372846,50.84450785,992.571401,-6105.5,-3250,3330,-2928,282,557,2342,59.92244301,65.7647778,59.34,65.79304816,0.012202408,-0.045023281,0,0.030707354
100,0,1.3,1,1.851851852,13874,-10356,16496,73,-882,-5899,-908,8828,-2262,917,-1124,1350,59.93502697,65.7130581,59.34,65.82177968,0.012583963,-0.051719695,0,0.028731513
100,0,1.3,1,2.777777778,9482,-10248,7124,-1698,-1057,-6165,1008,5888,-272,1318,-1750,276,59.94995915,65.64941309,59.34,65.84626988,0.014932179,-0.063645012,0,0.024490201
100,0,1.3,1,3.703703704,1042,-4858,-462,-1874,-441,-7256,665.9978789,3988.052337,472.4404255,1575.157287,-1723.363169,-916.5011069,59.97288062,65.56558661,59.34,65.86493347,0.022921472,-0.083826482,0,0.01866359
100,0,1.3,1,4.62962963,3183.481481,-5216.800594,-2020.606976,-1594.183992,-255.2723102,-7008.628636,198,2582,774,1826,-1659,-2107,59.99337114,65.47254036,59.34,65.88710331,0.020490518,-0.093046249,0,0.022169841
100,0,1.3,1,5.555555556,7160.518519,-6032.490076,-2932.859044,-1012.367984,-138.525044,-6401.479494,-1.398982622,1556.534202,361.9077977,2198.559398,-1388.502514,-3238.288681,60,65.38303932,59.34,65.92497515,0.006628861,-0.08950104,0,0.037871836
100,0,1.3,1,6.481481481,9302,-6914,-3230,-515,-98,-5637,-150.136955,722.4449227,-443.0732934,2634.01051,-965.1957016,-4321.204746,60,65.30456193,59.34,66.00904617,0,-0.078477393,0,0.084071029
100,0,1.3,1,7.407407407,5256,-7788,910,-243,-269,-4509,-330,-146,-994,3028,-745,-5247,60,65.22350387,59.34,66.12447774,0,-0.081058059,0,0.115431566
100,0,1.3,2,8.333333333,4783.929441,-7780,1528.110634,-423.5,-164,-4013.239099,-675.6719023,-1200.179531,-1147.101699,3332.642249,-767.0746269,-6049.514163,60,65.12196876,59.34,66.27,0,-0.101535108,0,0.14552226
100,0,1.3,2,9.259259259,4632,-7772,1734,-604,-59,-3609,-910,-2168,-1260,3624,-796,-6602,60,64.96479602,59.29898438,66.40865875,0,-0.157172737,-0.041015625,0.138658753
100,0,1.3,2,10.18518519,5036,-7817.408377,375.2721769,-567.7024793,-63.11609499,-3071.522184,-362,-2838,-1384,3948,-806,-6819,60,64.76781625,59.29514403,66.54193697,0,-0.196979771,-0.003840342,0.133278222
100,0,1.3,2,11.11111111,5440,-7940,-1094,-482,-74,-2521,-480.2288206,-3647.351854,-1310.25,4159.782725,-665.4744474,-7144.507642,60,64.54292641,59.38485597,66.66806303,0,-0.224889843,0.089711934,0.12612605
100,0,1.3,2,12.03703704,4648,-8408,-1226,-286,-112,-2021,-741.9435216,-4550.131504,-1148,4344.612422,-330.6818596,-7549.513616,60,64.41824343,59.38101563,66.80149604,0,-0.124682976,-0.003840342,0.133433011
100,0,1.3,2,12.96296296,3948.633028,-8761.475953,-546.0790514,-103.6055759,-139.2516052,-1526.345432,-1007.686462,-5499.345402,-985.75,4475.385908,68.20165793,-7953.012783,60,64.34579115,59.34,66.94,0,-0.072452285,-0.041015625,0.138503964
100,0,1.3,2,13.88888889,3296,-8940,184,11,-157,-1102,-1138,-6448,-912,4525,401,-8274,59.96806751,64.28865827,59.34,67.09231898,-0.031932494,-0.057132874,0,0.15231898
100,0,1.3,2,14.81481481,2643.925399,-8529,240.0640042,40.5066568,-166.0215517,-776.3595536,-1148,-7402,-1186,4513,634,-8484,59.93512248,64.27040846,59.33612533,67.18948736,-0.032945029,-0.018249813,-0.003874669,0.097168381
100,0,1.3,2,15.74074074,2072,-8118,292,52,-170,-561,-767.7850467,-7997.764848,-1686.360927,4588.772077,553.5238966,-8598.725396,59.92013311,64.27688333,59.29274102,67.23654636,-0.014989366,0.006474866,-0.043384312,0.047059002
100,0,1.3,2,16.66666667,1555.95043,-8152.222222,701.0637877,51.69292347,-164.5555556,-450.6421736,-384,-8280,-2206,4690,377,-8696,59.90723662,64.28908363,59.24904824,67.24,-0.012896489,0.012200304,-0.043692775,0.003453638
100,0,1.3,2,17.59259259,1102.641882,-8215.777778,1364.309672,50.71918028,-154.4444444,-371.3766424,-380,-7740,-2526,4728,59,-8812,59.89661627,64.30421648,59.22,67.24,-0.010620351,0.015132845,-0.029048244,0
100,0,1.3,2,18.51851852,908,-8250,1712,49,-149,-341,-557.9142615,-7435.513761,-2539.890566,4720.463839,-427.6143626,-8950.782256,59.88845532,64.31948897,59.24904824,67.17452497,-0.008160954,0.01527249,0.029048244,-0.065475032
100,0,1.3,2,19.44444444,1017,-8052,1701.812964,-32.44855299,-150.3960396,-406.2522848,-902,-7296,-2544,4702,-820,-9097,59.88293702,64.3321082,59.29274102,67.04156823,-0.005518296,0.012619238,0.043692775,-0.132956737
100,0,1.3,2,20.37037037,1126,-7854,1668,-147,-155,-506,-1344.642915,-7849.905893,-2084.432432,4627.815197,-962.1172755,-9248.0346,59.88024464,64.33928129,59.33612533,66.82564109,-0.002692378,0.00717309,0.043384312,-0.215927139
100,0,1.3,2,21.2962963,708,-8490,1090,-202,-227,-567,-1887.946082,-9026.034007,-1188.864865,4502.422855,-1056.84302,-9398.187657,59.89898438,64.34,59.34,66.75515372,0.018739731,0.000718705,0.003874669,-0.07048737
100,0,1.3,2,22.22222222,139.0800604,-8529.913987,661.22769,-219.3269231,-214,-655.4770073,-2352,-10096,-582,4406,-1129,-9517,59.94,64.34,59.34,66.72,0.041015625,0,0,-0.035153722
100,0,1.3,2,23.14814815,-212,-8542,446,-235,-201,-765,-2662,-10786,-432,4364,-1185,-9592,59.94,64.011875,59.39809649,66.66207477,0,-0.328125,0.058096488,-0.057925232
100,0,1.3,2,24.07407407,125.8371501,-8476,882,-270.9230769,-202.6730769,-910.4193962,-2755.553517,-11532.19895,-465.8117121,4298.696998,-1384.958062,-9591.734116,59.94,63.90849464,59.48328028,66.65226589,0,-0.10338036,0.085183793,-0.009808877
100,0,1.3,2,25,498,-8410,1318,-319,-207,-1043,-2848,-12114,-526,4222,-1678,-9591,59.94,64.23713865,59.56270972,66.80994907,0,0.328644006,0.079429437,0.157683177
100,0,1.3,2,25.92592593,553.1628499,-8410.896552,1288.611544,-372.8622047,-228.5105965,-1106.676947,-3181.359016,-12363.94824,-597.1495489,4156.85854,-2037.429059,-9398.547617,59.94,64.44740238,59.60764264,67.11306514,0,0.210263733,0.04493292,0.30311607
100,0,1.3,2,26.85185185,574,-8414,1204,-431,-253,-1176,-3748.072865,-12532.07321,-674.0192189,4089.1194,-2420.547863,-8943.386209,59.94,64.55,59.64,67.4,0,0.10259762,0.032357361,0.286934862
100,0,1.3,2,27.77777778,464,-8542,762,-488,-261,-1350,-4348,-12794,-710,3988,-2599,-8406,59.94,64.32915734,59.67760549,67.32449268,0,-0.220842662,0.03760549,-0.075507318
100,0,1.3,2,28.7037037,260.3185328,-8787.536522,875,-555.8398872,-277.9191077,-1570.828238,-4899.987515,-13710.6827,-369.7298255,3755.964105,-2579.71656,-7819.413995,59.93446289,64.20301358,59.71691062,67.16037583,-0.005537109,-0.12614376,0.039305132,-0.164116848
100,0,1.3,2,29.62962963,122,-8956,988,-624,-298,-1794,-5492.539522,-15028.23024,264.3181268,3370.864025,-2525.544232,-7075.941681,59.88553711,64.24860571,59.75663983,66.86939813,-0.048925781,0.045592133,0.039729206,-0.290977703
100,0,1.3,2,30.55555556,492,-7840,964,-682,-314,-1975,-6180,-15700,612,2915,-2442,-6145,59.88,64.4690852,59.76,66.62681193,-0.005537109,0.220479489,0.003360172,-0.242586198
100,0,1.3,2,31.48148148,532.9652112,-8257,773.2357642,-739.2772277,-365.4888215,-2105.813132,-7011.906969,-15012.26946,620.779387,2363.856777,-2162.589924,-4851.518008,59.88,64.76,59.76,66.42,0,0.290914801,0,-0.206811932
100,0,1.3,2,32.40740741,576,-8674,602,-771,-464,-2239,-8072,-13798,624,1662,-1710,-3072,59.91785874,64.71583147,59.76780123,66.21846913,0.037858742,-0.044168532,0.007801233,-0.201530871
100,0,1.3,2,33.33333333,1176,-8334,696,-695,-686,-2432,-9628,-12646,568,732,-1178,-414,59.94,64.7222998,59.78721956,66.02794769,0.022141258,0.006468337,0.019418323,-0.190521438
