locomotion_mode,terrain_info,walk_speed_info,gait_phase,gait_percentage,left_accel_x,left_accel_y,left_accel_z,left_gyro_x,left_gyro_y,left_gyro_z,right_accel_x,right_accel_y,right_accel_z,right_gyro_x,right_gyro_y,right_gyro_z,left_hip_angle,left_knee_angle,right_hip_angle,right_knee_angle,left_hip_angle_vel,left_knee_angle_vel,right_hip_angle_vel,right_knee_angle_vel
100,0,0.9,2,95.67538708,1504.449941,-8258.623907,643.3236152,-616.7529991,-255.7532278,-793.8169276,-4866,-9058,-424,-341,-586,2034,59.46,65.98,60.36,65.51434203,0,0,0,-0.041435064
100,0,0.9,2,95.72877736,1492,-8244,640,-632,-270,-859,-3035.866474,-9069.925926,659.5901535,-229.2592593,-61.50348101,1945.161777,59.46,65.98,60.36,65.47,0,0,0,-0.044342027
100,0,0.9,2,95.78216765,1681,-8258.439252,678.5482809,-646.9556052,-311.6358362,-958.5780538,447.1559402,-9092.074074,2584.239521,-21.74074074,630.8038151,1753.87911,59.46,65.98,60.40101563,65.42934767,0,0,0.041015625,-0.040652334
100,0,0.9,3,95.83555793,1870,-8304,774,-655,-365,-1046,2572,-9104,3612,90,976,1573,59.4515978,65.986839,60.42,65.3732013,-0.008402198,0.006838999,0.018984375,-0.056146364
100,0,0.9,3,95.88894821,1444,-8748,1032,-648,-401,-1074,2957.21443,-8548.148148,2279.407407,-1.518518519,935.6109508,1414.157927,59.40494606,66.03585182,60.42,65.28639046,-0.04665174,0.049012823,0,-0.086810838
100,0,0.9,3,95.94233849,1130.124573,-9189.521456,988.2523901,-730.7037037,-464.2348877,-1105.132553,3209.496104,-7515.851852,-195.4074074,-171.4814815,826.1107906,1263.801186,59.42214126,66.08580501,60.42,65.19389627,0.017195196,0.049953185,0,-0.092494193
100,0,0.9,3,95.99572878,872.596737,-9595.760728,880.5047801,-884.2962963,-537.1174439,-1141.76173,3300,-6960,-1528,-263,665,1197,59.46,66.12,60.42,65.11,0.037858742,0.034194993,0,-0.083896271
100,0,0.9,3,96.04911906,756,-9774,744,-967,-572,-1195,2971.79846,-8543,-1253.231733,59,109.7245366,1777.908887,59.46,66.02429688,60.42,65.0638966,0,-0.095703125,0,-0.046103401
100,0,0.9,3,96.10250934,744.5424655,-9503.851852,514.232757,-958.7037037,-570.1851852,-1315.645918,1998,-10126,-576,381,-380,2572,59.46,65.98,60.42,65.02332525,0,-0.044296875,0,-0.040571352
100,0,0.9,3,96.15589963,738.820499,-9002.148148,208.7782398,-943.2962963,-566.8148148,-1506.571633,-4056,-7192,1224,-326,-409,2899,59.46,65.98,60.42,64.98255449,0,0,0,-0.040770758
100,0,0.9,3,96.20928991,728,-8732,-14,-935,-565,-1707,-5256,-8664,1820,-755,-75,2952,59.4355957,65.98,60.42,64.93943961,-0.024404297,0,0,-0.043114876
100,0,0.9,3,96.26268019,693.8202192,-9268.147658,-136.1630626,-976.0279292,-569.5,-1895.995031,-1896,-6414,-274,-1049,245,3058,59.4,65.98069815,60.42,64.89577067,-0.035595703,0.000698148,0,-0.04366894
100,0,0.9,3,96.31607048,608,-10114,-194,-1048,-574,-2106,-863.3156039,-7148.224595,-607.7011379,-914.2057936,121.6610807,2964,59.4,66.02999593,60.42,64.85453313,0,0.049297781,0,-0.041237546
100,0,0.9,3,96.36946076,-4,-10686,350,-1115,-424,-2361,-466,-7938,-720,-687,-17,2870,59.4,66.04019744,60.42,64.81056585,0,0.010201506,0,-0.043967282
100,0,0.9,3,96.42285104,-202,-10886,362,-1193,-442,-2428,-1732,-8004,-278,-499,-36,2885,59.4,65.98577041,60.42,64.76397517,0,-0.05442703,0,-0.046590678
100,0,0.9,3,96.47624132,150,-10951.5463,336,-1183.44993,-427.5,-2619.622728,-1648.25,-8088.028423,-278.625,-448.5975768,-26.3125,2785.058835,59.4,65.99622562,60.42,64.76,0,0.010455212,0,-0.003975168
100,0,0.9,3,96.52963161,502,-11016,310,-1162,-413,-2860,-1464,-8183.767284,-280,-423.38724,-5,2554.240227,59.4,66.05318084,60.42,64.76,0,0.056955227,0,0
100,0,0.9,3,96.58302189,495.3333333,-11285.76953,318.2962963,-1103.718642,-455.5824214,-3058.888969,-1279.75,-8263.122503,-281.375,-399.2332832,16.3125,2296.051506,59.4,66.10779865,60.42,64.76,0,0.054617803,0,0
100,0,0.9,3,96.63641217,480.6666667,-11680.10699,333.7037037,-1020.414877,-541.0537316,-3244.35645,-1196,-8298,-282,-352,26,2114,59.4,66.12,60.410625,64.76,0,0.012201352,-0.009375,0
100,0,0.9,3,96.68980246,466,-11882,342,-978,-606,-3382,-1364,-8300,-230,-205,9,2029,59.4,66.12,60.36257813,64.76,0,0,-0.048046875,0
100,0,0.9,3,96.74319274,454,-11436,194,-985,-631,-3461,-1451.12766,-8270,131.7674942,-114.8713922,4.61746988,1900.948296,59.4,66.12,60.36,64.7734761,0,0,-0.002578125,0.0134761
100,0,0.9,3,96.79658302,1024.897022,-10412.16491,50.31145283,-951.1720183,-706.4349345,-3528.978497,-1490,-8240,548,-63,3,1790,59.4,66.12,60.36,64.81707506,0,0,0,0.043598963
100,0,0.9,3,96.8499733,2002,-9520,-76,-887,-820,-3575,-1462,-8346,686,-48,32,1744,59.4,66.12,60.36,64.87113289,0,0,0,0.054057833
100,0,0.9,3,96.90336359,2848,-9310,-168,-812,-955,-3591,-1368.052632,-8224.096257,789.2525497,-22.70454545,22,1710.783773,59.4,66.12,60.36,64.917335,0,0,0,0.046202105
100,0,0.9,4,96.95675387,3666.626605,-9373.447072,-128.1818182,-777.714497,-1006.050406,-3588.149502,-1294,-8090,872,-6,12,1686,59.4,66.12,60.36,64.9614254,0,0,0,0.044090404
100,0,0.9,4,97.01014415,4432,-9516,-22,-763,-1052,-3580,-1351.149586,-8069.310358,940.617827,-12.98096227,21.34714375,1669.634517,59.4,66.12,60.36,65.00297259,0,0,0,0.041547183
100,0,0.9,4,97.06353444,5261.652807,-9896.552928,741.1818182,-844.827005,-1153.417773,-3459.00788,-1479.854727,-8056.432957,999.5256391,-28.85081343,41.80539862,1656.798474,59.4,66.12,60.36,65.04421702,0,0,0,0.041244434
100,0,0.9,4,97.11692472,5734,-10198,1438,-960,-1250,-3290,-1616,-8052,1046,-46,62,1643,59.4,66.12,60.36,65.08626578,0,0,0,0.042048758
100,0,0.9,4,97.170315,5218,-9684,1250,-1013,-1291,-3202,-1744,-8248,1078,-63,78,1626,59.4,66.12,60.36,65.13992764,0,0,0,0.053661859
100,0,0.9,4,97.22370529,4848.485114,-8494.076109,1140.59963,-981.0454545,-1443.295801,-3009.502701,-1883.30818,-8244.897284,1035.460938,-61.54334118,77.89227849,1586.052261,59.4,66.12,60.36,65.21570119,0,0,0,0.07577355
100,0,0.9,4,97.27709557,4532,-7118,1034,-918,-1669,-2725,-2040.878856,-8235.433546,923.3125,-57.26466977,77.50566909,1519.114291,59.4,66.12486706,60.36,65.28917395,0,0.004867061,0,0.073472759
100,0,0.9,4,97.33048585,4270.436275,-6301.399258,883.6828556,-845.7422167,-1956.925795,-2352.111179,-2205.358183,-8219.375398,764.7578125,-50.30094333,76.74500455,1431.798741,59.4,66.14625469,60.35985792,65.33238795,0,0.021387624,-0.00014208,0.043214007
100,0,0.9,4,97.38387613,3948,-5274,668,-738,-2140,-1869,-2365.392316,-8196.489456,583,-40.7891194,75.51511758,1330.718259,59.4,66.18004449,60.34513152,65.35473583,0,0.033789804,-0.0147264,0.022347881
100,0,0.9,4,97.43726642,3222,-2304,248,-522,-1940,-1223,-2509.62741,-8166.542331,401.2421875,-28.86615555,73.72084092,1222.485495,59.4,66.23575893,60.31427712,65.37362708,0,0.055714441,-0.0308544,0.018891244
100,0,0.9,4,97.4906567,1998.12976,-2559.084746,-859.2632387,-276.6893265,-1139.38807,-1355,-2626.709619,-8129.300638,242.6875,-14.66900932,71.26700728,1113.713097,59.4,66.33637485,60.27881472,65.38810197,0,0.100615917,-0.0354624,0.014474893
100,0,0.9,4,97.54404698,1190,-2906,-1686,-32,-438,-1487,-2705.285097,-8084.530989,130.5390625,1.66536171,68.0584494,1011.013716,59.4,66.38604722,60.25026432,65.3972008,0,0.049672377,-0.0285504,0.009098826
100,0,0.9,4,97.59743727,1634,-3046,-634,182,-380,-987,-2734,-8032,88,20,64,921,59.4,66.42417438,60.24067383,65.4,0,0.038127158,-0.009590492,0.002799202
100,0,0.9,4,97.65082755,1362,-3568.917808,401.2916869,331.8848698,-295.1099428,-401.5137169,-2548,-7874,296,59,0,843,59.4,66.46454603,60.28608398,65.4,0,0.040371651,0.045410156,0
100,0,0.9,4,97.70421783,1090,-3990,974,466,-215,221,-2590,-8056,656,85,10,724,59.4,66.52921096,60.28748219,65.4,0,0.06466493,0.001398206,0
100,0,0.9,4,97.75760812,1306,-3802,188,610,-169,846,-2872,-7986,650,77,19,680,59.4,66.62555925,60.24229595,65.4,0,0.096348286,-0.045186241,0
100,0,0.9,4,97.8109984,1392.479109,-3613.832144,-145.4961946,752.9392545,-115.861286,1343.391288,-2776.586118,-7990.947846,686.6057839,43.47384757,25.89683283,620.3301112,59.4,66.68029137,60.24,65.435,0,0.054732117,-0.00229595,0.035
100,0,0.9,4,97.86438868,1450.683999,-3440.249405,-373.5258751,896.6607516,-60.41333881,1784.4037,-2567.838902,-8005.229025,772.5449011,-6.374187324,32.20158569,553.3409072,59.40205761,66.7349724,60.23588477,65.47,0.002057613,0.054681032,-0.004115226,0.035
100,0,0.9,4,97.91777896,1472,-3364,-458,1048,-14,2220,-2362,-8028,872,-32,41,498,59.44444444,66.83940379,60.15111111,65.47,0.042386831,0.104431396,-0.084773663,0
100,0,0.9,4,97.97116925,1446,-3610.291438,-441.6666667,1209.423463,26.52868852,2652.211258,-2158.590617,-8165.683673,1019.568493,-20,63.76845638,452.7014446,59.46,66.87,60.12,65.4590625,0.015555556,0.030596206,-0.031111111,-0.0109375
100,0,0.9,4,98.02455953,1420,-3992,-402,1386,48,3106,-2038,-8290,1120,-8,81,429,59.46,66.87,60.12,65.40300781,0,0,0,-0.056054687
100,0,0.9,4,98.07794981,1452,-4236,-302,1592,0,3648,-2334,-7778,860,-23,64,501,59.49,66.905,60.09727495,65.4,0.03,0.035,-0.022725046,-0.003007813
100,0,0.9,4,98.1313401,1564,-4386,-288,1729,-57,4020,-2248.444444,-7750.376665,960.9676324,-45.81478811,67.66666667,508.9167265,59.52,66.94,60.05204016,65.4,0.03,0.035,-0.045234795,0
100,0,0.9,4,98.18473038,1622,-4816,-344,1935,-183,4530,-2089.555556,-7736.077221,1157.49082,-76.55651686,78.66666667,512.2364381,59.52,66.94,60.00874188,65.4,0,0,-0.043298277,0
100,0,0.9,4,98.23812066,1691.156805,-5239.921037,-304,2101.704528,-279.8153049,4931.16379,-2004,-7732,1290,-116,97,519,59.52,66.95855469,60.01391602,65.4,0,0.018554688,0.005174133,0
100,0,0.9,4,98.29151095,1732,-5674,-264,2227,-329,5255,-2268,-8538,1322,-179,174,548,59.52,67.01910156,60.05932617,65.4,0,0.060546875,0.045410156,0
100,0,0.9,4,98.34490123,1660.305737,-6145.035069,-344.1462041,2317.300309,-284.678125,5519.081872,-2072,-8171,1297.267936,-220.582878,177.226603,575.5652174,59.55,66.98,60.06,65.365,0.03,-0.039101563,0.000673828,-0.035
100,0,0.9,4,98.39829151,1491.981965,-6639.88935,-534.8898776,2397.183608,-167.475,5753.395279,-1876,-7804,1232,-255,180,612,59.58,66.94,60.05947566,65.33,0.03,-0.04,-0.000524335,-0.035
100,0,0.9,4,98.45168179,1297.16721,-7130.798955,-761.6886123,2454.225103,-1.034375,5952.761047,-2164,-8174,1006,-287,197,692,59.58,66.94,60.01994556,65.33,0,0,-0.039530103,0
100,0,0.9,4,98.50507208,1146,-7590,-950,2476,191,6112,-2111,-7876,882.2001477,-321.9576271,195.3309859,725.344456,59.58,66.95369863,59.98804378,65.33,0,0.01369863,-0.031901784,0
100,0,0.9,4,98.55846236,1033.053068,-8039.151036,-1112.097887,2456.944114,482.8187903,6247.557821,-2058,-7578,826,-342,191,759,59.58,67.01512842,59.96814661,65.33,0,0.061429795,-0.019897172,0
100,0,0.9,4,98.61185264,934.3043119,-8465.573982,-1262.048943,2410.11045,890.2264695,6360.593983,-2384,-7792,926,-333,177,842,59.61264401,67.06709449,59.95185259,65.33,0.032644006,0.05196606,-0.01629402,0
100,0,0.9,4,98.66524293,892,-8790,-1328,2351,1302,6423,-2364,-7412,1034,-391,186,827,59.64,67.09,59.93701702,65.33032704,0.027355994,0.022905515,-0.014835566,0.00032704
100,0,0.9,4,98.71863321,1044.867929,-8981.666111,-1323.945998,2270.49828,1722.802154,6447.765088,-2640,-7942,1046,-404,227,890,59.64,67.09,59.92112775,65.34016064,0,0,-0.015889269,0.0098336
100,0,0.9,4,98.77202349,1370.624746,-9127.773594,-1312.33644,2158.273345,2148.127346,6464.715877,-2470,-7524,894,-410,194,885,59.64,67.10669041,59.90525787,65.35873024,0,0.016690413,-0.015869879,0.0185696
100,0,0.9,4,98.82541377,1670,-9326,-1294,2028,2453,6471,-2554.968992,-7588.37799,851.8286853,-419.7747253,208.1666667,909.5454545,59.64,67.16693873,59.89164829,65.37931584,0,0.060248321,-0.013609578,0.0205856
100,0,0.9,4,98.87880406,1872.858317,-9754.136549,-1159.488854,1871.414844,2650.55016,6433.145419,-2664,-7704,836,-434,234,939,59.67,67.17,59.88253993,65.39519744,0.03,0.003061266,-0.009108366,0.0158816
100,0,0.9,4,98.93219434,2056.320419,-10315.48751,-909.0379225,1684.655876,2804.77508,6344.179726,-2694.82588,-7848.62201,852,-465.1538462,267.8333333,947.4545455,59.7,67.17074018,59.88,65.4,0.03,0.000740184,-0.002539928,0.00480256
100,0,0.9,4,98.98558462,2242,-10696,-708,1488,2867,6241,-2728,-7942,868,-488,290,951,59.7,67.19103681,59.88,65.4,0,0.02029663,0,0
100,0,0.9,4,99.03897491,2438.950588,-10864.35224,-606.8716448,1283.015295,2814.133245,6123.326241,-2908.732644,-7800.472875,649.1851852,-479.962963,287.6666667,944.8627451,59.7,67.22185185,59.88,65.4,0,0.030815037,0,0
100,0,0.9,4,99.09236519,2636,-10940,-526,1068,2691,5982,-3191.584945,-7528.279083,242.8148148,-465.037037,283.3333333,928.7254902,59.7,67.23981106,59.88,65.4,0,0.017959206,0,0
100,0,0.9,4,99.14575547,2828,-10790,-452,849,2422,5821,-3346,-7354,24,-457,281,906,59.7,67.20191533,59.84735599,65.43808467,0,-0.037895732,-0.032644006,0.038084673
100,0,0.9,4,99.19914576,2826,-10816,-426,726,2212,5686,-3354,-7322,132,-469,317,859,59.70257813,67.17300781,59.82,65.47,0.002578125,-0.028907514,-0.027355994,0.031915327
100,0,0.9,4,99.25253604,2729.604938,-10667.48193,-456.9621615,633.7167152,2008.578945,5397.919403,-3212.607143,-7451.522472,241.4490756,-472.6157025,308,788.6317042,59.750625,67.2290625,59.82,65.47,0.048046875,0.056054687,0,0
100,0,0.9,4,99.30592632,2554.135802,-10326.51941,-519.4798786,557.6361354,1811.775006,4993.115168,-2984,-7670,340,-474,299,740,59.76,67.23156762,59.82,65.47,0.009375,0.002505122,0,0
100,0,0.9,4,99.3593166,2460,-9950,-568,526,1635,4614,-2829.941112,-7855.36307,410.5999206,-465.5,306.3433735,733.4082031,59.76,67.18680009,59.82,65.47,0,-0.044767537,0,0
100,0,0.9,4,99.41270689,2538,-9556,-588,541,1489,4318,-2654,-8034,482,-457,322,731,59.76,67.11737927,59.82,65.42847168,0,-0.06942082,0,-0.04152832
100,0,0.9,4,99.46609717,2255.1875,-10466,-616.6440678,529.1594828,1310.798994,3974.404276,-2277.451745,-8162.912285,612.4972222,-480.6929825,346.7705318,749.2352941,59.76,67.03915749,59.81555556,65.40518519,0,-0.078221776,-0.004444444,-0.023286495
100,0,0.9,4,99.51948745,1633,-12468,-651.0169492,495.7586207,1109.012599,3596.837507,-2010,-8334,700,-531,382,795,59.76,66.96798709,59.77131687,65.45679698,0,-0.071170404,-0.044238683,0.051611797
100,0,0.9,4,99.57287774,1010.8125,-14470,-679.8813559,443.9784483,875.7199049,3153.101984,-2246,-8860,648,-613,429,925,59.76,66.91721479,59.76,65.47,0,-0.050772293,-0.011316872,0.013203018
100,0,0.9,4,99.62626802,728,-15380,-692,377,603,2611,-1724,-8618,714,-645,410,963,59.76,66.87460101,59.76,65.47,0,-0.042613779,0,0
100,0,0.9,4,99.6796583,2162,-6862,1534,221,224,1782,-1850,-8958,848,-767,456,1117,59.76,66.82859791,59.76,65.47,0,-0.0460031,0,0
100,0,0.9,4,99.73304859,3474.129149,-8493,512,50.29979922,75.10157141,885.4167487,-1790,-8918,987.4010176,-868.4646591,494.1903902,1237.530059,59.76,66.76799592,59.75505394,65.47,0,-0.060601994,-0.004946061,0
100,0,0.9,4,99.78643887,4182,-10124,-510,-98,-39,67,-1730,-8878,1066,-945,529,1360,59.76,66.67419191,59.7084022,65.47,0,-0.09380401,-0.04665174,0
100,0,0.9,4,99.83982915,3705.844893,-9869,-401.2722849,-212.9762762,-175.8035928,-642.214046,-1912,-9278,1046,-987,562,1523,59.76,66.59778165,59.7,65.47,0,-0.076410261,-0.008402198,0
100,0,0.9,4,99.89321943,2575.08638,-9308,-116.3927599,-319.367801,-315.0326946,-1321.641185,-2164,-9018,1092,-1049,600,1639,59.76,66.53683826,59.7,65.47,0,-0.060943387,0,0
100,0,0.9,4,99.94660972,1236.284678,-8747,282.6831452,-397.5754254,-460.2454492,-1854.247732,-2103.148727,-9163.009545,967,-1143.101684,627.2975933,1689.129364,59.76,66.4764989,59.7,65.47,0,-0.060339357,0,0
100,0,0.9,4,100,136,-8492,734,-428,-615,-2123,-1988,-9392,842,-1228,658,1738,59.76,66.40355876,59.7,65.47,0,-0.072940145,0,0
100,0,0.9,1,0,-791.2619675,-8540.740741,1556.126898,-218.7777778,-826.1680726,-2210.0284,-1875.051802,-9534.478822,883.25,-1271.769706,714.4904045,1840.678459,59.76,66.30805437,59.7,65.47,0,-0.095504386,0,0
100,0,0.9,1,0.71942446,-1641.519873,-8631.259259,2604.396782,169.7777778,-1049.972925,-2269.180867,-1744.233046,-9653.648369,974,-1303.15339,794.3541792,1990.444213,59.76,66.2160126,59.7,65.47610068,0,-0.092041776,0,0.006100676
100,0,0.9,1,1.438848921,-2014,-8680,3122,379,-1154,-2291,-1581.797768,-9790.993732,1064.75,-1332.460379,883.7908643,2160.23786,59.76,66.1281219,59.7,65.50340958,0,-0.0878907,0,0.027308902
100,0,0.9,1,2.158273381,-1810.425415,-8112.377064,1753.032147,303.5699224,-1152.128897,-2095.5,-1374,-9988,1106,-1370,969,2323,59.76,66.04122856,59.7,65.53188719,0,-0.086893335,0,0.028477614
100,0,0.9,1,2.877697842,-1356,-7298,-2,172,-1147,-1900,-1010,-10396,980,-1425,1048,2476,59.76,65.95245372,59.7,65.54,0,-0.088774843,0,0.008112809
100,0,0.9,1,3.597122302,-495.5192473,-6789.329664,-725.7608531,57.04993653,-899.9335244,-2001.011499,-711.7821565,-10962.58474,881.7837086,-1453.366279,1093.846377,2745.431806,59.76,65.85936021,59.7,65.54,0,-0.093093507,0,0
100,0,0.9,1,4.316546763,866.4937307,-6361.664832,-1260.991538,-65.93588931,-373.6552175,-2284.911887,-500,-11586,772,-1466,1128,3059,59.75752144,65.7945442,59.68285365,65.54,-0.002478559,-0.064816015,-0.017146346,0
100,0,0.9,1,5.035971223,2406,-6182,-1470,-201,129,-2723,-373.9926315,-12298.40204,537.8636848,-1458.602017,1155.029759,3370.54176,59.74498585,65.74386543,59.64059841,65.54,-0.012535593,-0.050678768,-0.042255241,0
100,0,0.9,1,5.755395683,4198,-8308,-28,-360,497,-3994,-279.3296491,-13005.53436,247.9318424,-1437.204035,1178.016783,3675.485411,59.72724834,65.70061956,59.64,65.54,-0.017737507,-0.043245872,-0.000598412,0
100,0,0.9,1,6.474820144,3573.165461,-8242.148148,-86.07407407,-346.9729093,368.1481481,-3815.336628,-242,-13326,106,-1403,1205,3876,59.71042882,65.66124708,59.64,65.54,-0.016819522,-0.039372474,0,0
100,0,0.9,1,7.194244604,2390.1087,-8119.851852,-193.9259259,-315.2791519,128.8518519,-3446.228812,-494,-13076,142,-1287,1243,3958,59.70064718,65.62218851,59.64,65.54,-0.009781639,-0.039058576,0,0
100,0,0.9,1,7.913669065,1686,-8054,-252,-276,0,-3137,-2374.850814,-12169.64567,-133,-1284.355234,1323.191337,4170.759857,59.7,65.57569838,59.64,65.56352538,-0.000647179,-0.046490126,0,0.023525377
100,0,0.9,1,8.633093525,1583.372781,-8225.62963,-73.03376839,-217.4714837,0.259259259,-2968.781554,-4796,-11444,-408,-1282,1453,4329,59.7,65.54040785,59.64,65.60937586,0,-0.035290527,0,0.04585048
100,0,0.9,1,9.352517986,1517.353057,-8544.37037,277.9324632,-140.9728065,0.740740741,-2831.795215,-6315.831665,-11590,199.5638407,-1185.953383,1692.103194,4287.630853,59.7,65.54,59.64,65.61,0,-0.000407854,0,0.000624143
100,0,0.9,1,10.07194245,1494,-8716,522,-77,1,-2690,-7088,-11736,1004,-1041,2007,4194,59.7,65.54,59.64,65.61,0,0,0,0
100,0,0.9,2,10.79136691,1496.397214,-8661.44341,596.3509337,-27.59995341,-4.939854083,-2528.330956,-6934.708495,-10942.85176,1375.436159,-951.3627912,2337.258921,4025.53569,59.7,65.54,59.64,65.61,0,0,0,0
100,0,0.9,2,11.51079137,1503.559238,-8530.515759,641.9505321,19.27226363,-18.42294422,-2360.095862,-6554,-9540,1550,-862,2680,3731,59.7,65.54,59.61785874,65.6318364,0,0,-0.022141258,0.021836401
100,0,0.9,2,12.23021583,1515.441643,-8372.330229,685.5748644,54.25834886,-32.94456225,-2191.812838,-5393.257653,-8396.76494,1547.586957,-771.5944785,3083.707257,3113.911699,59.7,65.54,59.58,65.69,0,0,-0.037858742,0.058163599
100,0,0.9,2,12.94964029,1532,-8236,754,68,-42,-2030,-3486,-6798,1544,-624,3323,2178,59.7,65.54,59.58,65.74422573,0,0,0,0.054225735
100,0,0.9,2,13.66906475,1684.021418,-8109.245251,932.852249,58.57508827,-44.84354461,-1875.680209,-1002,-2972,1542,5,3304,896,59.7,65.54,59.58757202,65.76,0,0,0.007572016,0.015774265
100,0,0.9,2,14.38848921,1946.566265,-7988.06707,1170.98168,36.92795432,-46.69545929,-1726.074888,-4580,380,-1316,1,2686,1235,59.7,65.54,59.63242798,65.76,0,0,0.044855967,0
100,0,0.9,2,15.10791367,2086,-7934,1290,13,-50,-1582,-3323.111111,-51.61613715,-1255.068841,161.3309587,2195.07226,1067.927396,59.7,65.54,59.64,65.78214844,0,0,0.007572016,0.022148437
100,0,0.9,2,15.82733813,2017.513699,-7993.969181,1227.423313,-18.43864097,-68.21140143,-1441.154681,-988.8888889,-973.0100521,-1104.804348,490.3285841,1772.319805,671.2992367,59.7,65.54,59.64,65.83,0,0,0,0.047851563
100,0,0.9,2,16.54676259,1888,-8124,1086,-39,-84,-1313,268,-1824,-914,760,1474,202,59.7,65.49214844,59.59898438,65.83,0,-0.047851563,-0.041015625,0
100,0,0.9,2,17.26618705,1738,-8350,806,-37,-83,-1209,139.4074074,-2531.360318,-550.010467,893.0136236,1313.282781,-363.1094484,59.6915978,65.47,59.5884022,65.83804179,-0.008402198,-0.022148437,-0.010582177,0.008041794
100,0,0.9,2,17.98561151,1884,-8330,682,-43,-96,-1090,-99.40740741,-3186.013492,-78.11634461,997.5756789,1198.355135,-1068.214486,59.64494606,65.47,59.63505394,65.89446896,-0.04665174,0,0.04665174,0.056427166
100,0,0.9,2,18.70503597,1620,-8374,676,-23,-103,-952,-228,-3474,156,1124,1028,-1788,59.64,65.48859868,59.61785874,65.93587732,-0.004946061,0.01859868,-0.017195196,0.041408363
100,0,0.9,2,19.42446043,1702.962963,-8348.29705,628.7201515,-25.33333333,-95.48148148,-855.1859704,-174,-3104,-630,1315,642,-2490,59.64,65.54,59.58,65.98,0,0.05140132,-0.037858742,0.044122677
100,0,0.9,2,20.14388489,1857.037037,-8295.038544,550.9156313,-29.66666667,-81.51851852,-775.4509361,-96,-2974,-748,1467,344,-2850,59.63352311,65.58083406,59.61785874,66.12940797,-0.006476893,0.040834057,0.037858742,0.149407975
100,0,0.9,2,20.86330935,1940,-8250,510,-32,-74,-708,-224.719057,-3086.939821,-1022.974351,1681.557111,96.46163522,-3208.76445,59.61817236,65.62035899,59.64,66.2,-0.015350747,0.03952493,0.022141258,0.070592025
100,0,0.9,2,21.58273381,1841.1875,-8219.749153,531.1610169,-23.60526316,-85.41438356,-652.5434737,-472,-3340,-1222,1899,-109,-3583,59.60006766,65.66208498,59.64,66.2,-0.018104701,0.041725989,0,0
100,0,0.9,2,22.30215827,1604,-8204,554,-10,-107,-603,-810.1813253,-3853.165015,-801.8288868,2064.170699,-268.6592361,-3997.921329,59.5853289,65.70952221,59.64,66.24043314,-0.014738757,0.047437233,0,0.040433139
100,0,0.9,2,23.02158273,1030,-8650,556,0,-132,-553,-1114,-4536,-244,2210,-400,-4434,59.58,65.76634677,59.64,66.39089041,-0.005328902,0.056824565,0,0.150457272
100,0,0.9,2,23.74100719,911.6765579,-8718.92006,670.0777056,-9.737704918,-126,-582.6300813,-1236,-5174,-40,2343,-506,-4879,59.58,65.8474399,59.64,66.56149273,0,0.081093127,0,0.170602316
100,0,0.9,2,24.46043165,870,-8742,830,-27,-120,-627,-1366,-5592,-134,2448,-561,-5121,59.58,65.93983445,59.64,66.66094767,0,0.092394552,0,0.09945494
100,0,0.9,2,25.17985612,917.2064516,-8726.73612,923.8736221,-42.86905184,-134.5,-650.2671389,-1579.011993,-5926.88245,-280.0040984,2607.528877,-603.237426,-5368.373968,59.58,66.04098343,59.64,66.71574754,0,0.10114898,0,0.054799872
100,0,0.9,2,25.89928058,978,-8688,976,-61,-149,-676,-1818,-6224,-374,2785,-642,-5600,59.58,66.02416853,59.65597391,66.72,0,-0.016814899,0.015973909,0.004252461
100,0,0.9,2,26.61870504,995.9318544,-8476.302307,985.8902803,-82.80799904,-136.037037,-735.8852228,-2017.134593,-6486.098181,-245.2241993,2948.237605,-692.1370482,-5798.245734,59.58,65.98,59.7,66.72,0,-0.044168532,0.044026091,0
100,0,0.9,2,27.3381295,1007.303135,-8095.012045,991.9451401,-107.3451272,-111.962963,-815.4963661,-2218,-6760,-48,3097,-723,-5972,59.58,65.98,59.74613083,66.6653125,0,0,0.046130827,-0.0546875
100,0,0.9,2,28.05755396,1030,-7784,994,-132,-99,-868,-2505.917051,-7117.385999,90.4319915,3222.503892,-724.0068197,-6122.927489,59.58,65.98,59.76,66.64722083,0,0,0.013869173,-0.018091672
100,0,0.9,2,28.77697842,1193.028672,-7585.020998,992,-156.5608209,-103.5,-888.834684,-2686,-7516,188,3329,-725,-6254,59.58,65.98,59.76,66.70578419,0,0,0,0.058563363
100,0,0.9,2,29.49640288,1512,-7484,990,-180,-108,-898,-2625.957746,-7961.455102,227.1343131,3411.152741,-748.3983346,-6359.987497,59.5715978,65.98,59.77694466,66.8291221,-0.008402198,0,0.016944663,0.123337912
100,0,0.9,2,30.21582734,2044,-7742,1052,-200,-102,-892,-2518,-8348,260,3490,-776,-6465,59.54735599,65.98,59.82,66.94,-0.024241807,0,0.043055337,0.110877898
100,0,0.9,2,30.9352518,1366,-6060,182,-437,-286,-837,-2410,-8568,310,3586,-783,-6597,59.52494606,65.98,59.88107227,66.94,-0.022409933,0,0.061072273,0
100,0,0.9,2,31.65467626,1802,-8820,1074,-336,-164,-898,-2237.32386,-8849.576085,284.6136993,3606.075,-809.7821281,-6666.373821,59.52,65.98,59.95454559,66.94,-0.004946061,0,0.073473315,0
100,0,0.9,2,32.37410072,1748,-8248,835,-304.9479472,-164.8718274,-898.5522669,-2009.853985,-9173.648682,228.1365314,3619.733333,-864.3962621,-6722.943396,59.52,65.98,59.99845763,66.94,0,0,0.043912041,0
100,0,0.9,2,33.09352518,1694,-7676,596,-293,-167,-899,-1751.957117,-9509.396939,170.0910978,3627.525,-940.8122651,-6761.041274,59.52,65.98,60,66.94,0,0,0.001542371,0
100,0,0.9,2,33.81294964,1716.695326,-7831.037037,606.7414006,-321.7589099,-176.6723068,-906.5488482,-1488,-9826,140,3630,-1033,-6775,59.52,65.98069815,60.00040301,66.94079788,0,0.000698148,0.000403012,0.000797883
100,0,0.9,2,34.5323741,1777.168429,-8118.962963,632.149468,-375.851153,-192.0028201,-921.4946813,-1206,-10112,136,3597,-1191,-6762,59.52,66.02999593,60.03398738,66.9971382,0,0.049297781,0.033584368,0.056340322
100,0,0.9,2,35.25179856,1864,-8274,662,-407,-200,-935,-979.1036217,-10558.9126,-79.77348066,3540.016351,-1465.59089,-6692.811161,59.52,66.05,60.07665785,67.01205939,0,0.020004071,0.042670466,0.014921186
100,0,0.9,2,35.97122302,2135.051092,-7955,697.7194957,-409.0105121,-197.5,-945.9598071,-862,-10986,-292,3456,-1775,-6572,59.52,66.05,60.11659271,66.95581708,0,0,0.039934867,-0.05624231
100,0,0.9,2,36.69064748,2358,-7636,740,-411,-195,-952,-982.8438169,-11244.32617,-178.4104906,3331.496538,-2073.634443,-6425.068551,59.52,66.05,60.12,66.90952806,0,0,0.003407287,-0.046289019
100,0,0.9,2,37.41007194,1869,-7708.84104,778.4635455,-424.91231,-197.4784189,-938.5,-1254.083512,-11447.79618,87.57202505,3159.52289,-2384.323572,-6237.01853,59.52,66.05,60.12046069,66.865,0,0,0.000460695,-0.044528062
100,0,0.9,2,38.1294964,1380,-7822,830,-442,-204,-925,-1538.781451,-11633.86809,393.7685282,2950.537798,-2633.600915,-6013.959244,59.52,66.05,60.1574876,66.80354167,0,0,0.037026908,-0.061458333
100,0,0.9,2,38.84892086,1442.222222,-7882.032113,986.7103106,-448.9887547,-278.1124406,-926.3215711,-1700,-11840,628,2715,-2748,-5762,59.51838297,66.04811347,60.19791629,66.80669041,-0.001617025,-0.001886529,0.040428684,0.003148747
100,0,0.9,2,39.56834532,1557.777778,-7934.973667,1206.577378,-454.0484314,-407.2784425,-930.3098089,-1736,-12080,762,2402,-2762,-5430,59.50748219,66.03539589,60.23296361,66.86693873,-0.010900785,-0.012717582,0.035047325,0.060248321
100,0,0.9,2,40.28776978,1620,-8032,1318,-463,-476,-937,-1857.038154,-11898.05549,694,2244.513058,-2698.202952,-5030.562225,59.49088224,66.01602928,60.27526969,66.80161001,-0.01659995,-0.019366609,0.04230608,-0.06532872
100,0,0.9,2,41.00719424,1342,-8851.031792,1135.920331,-513.7094595,-438.5,-990.0163971,-2080,-11534,626,2103,-2558,-4550,59.4740109,65.99634605,60.3,66.72,-0.016871339,-0.019683229,0.024730307,-0.081610014
100,0,0.9,2,41.72661871,1064,-9602,864,-558,-376,-1079,-2515.209828,-10978.80559,758,1897.211977,-2295.731511,-3919.271929,59.46229595,65.98267861,60.3,66.72,-0.011714951,-0.013667443,0,0
100,0,0.9,2,42.44604317,1334,-8792,710,-556,-326,-1168,-3134,-10440,890,1659,-1949,-3186,59.46,65.98,60.309375,66.70492399,-0.00229595,-0.002678608,0.009375,-0.015076014
100,0,0.9,2,43.16546763,1333.56015,-8257.741379,359.8267327,-581.995283,-395,-1243.118588,-3872,-10188,870,1395,-1612,-2392,59.46,65.98,60.35742188,66.59351668,0,0,0.048046875,-0.111407306
100,0,0.9,2,43.88489209,1332,-8000,108,-622,-464,-1325,-4112.834261,-10094.07248,739.4711815,1044.467801,-1174.648771,-1332.507475,59.46,65.98,60.36,66.45127392,0,0,0.002578125,-0.142242765
100,0,0.9,2,44.60431655,1034,-8586,108,-647,-443,-1446,-4260,-10014,522,676,-747,-272,59.45794239,65.98,60.36,66.33740445,-0.002057613,0,0,-0.113869465
100,0,0.9,2,45.32374101,896,-8762,146,-693,-386,-1580,-4392.422275,-9892.717619,293.4765021,341.6146517,-383.0372973,578.6098542,59.41555556,65.98,60.36,66.29344998,-0.042386831,0,0,-0.043954469
100,0,0.9,2,46.04316547,1206,-8750,410,-727,-374,-1676,-4482,-9722,12,48,-147,1279,59.4,65.98,60.36,66.25301216,-0.015555556,0,0,-0.040437818
100,0,0.9,2,46.76258993,1250.53468,-8840.9375,633.6416728,-779.2270639,-379.0920558,-1796.057962,-4534.155907,-9470.40593,-455.2262912,-226.5207434,-59.9635256,1833.499518,59.4,65.98,60.36,66.2099434,0,0,0,-0.043068762
100,0,0.9,2,47.48201439,1270.054723,-9041,847.1748956,-843.8407235,-393.6621488,-1933.219717,-4572.855731,-9088.523316,-995.2798123,-470.593705,-1.426207244,2304.71324,59.4,66.01191533,60.37921585,66.15546973,0,0.031915327,0.01921585,-0.054473674
100,0,0.9,2,48.20143885,1287.047405,-9241.0625,1011.120671,-898.7840213,-416.6511674,-2084.021614,-4588,-8512,-1254,-576,20,2690,59.4,66.05,60.43383922,66.0913219,0,0.038084673,0.054623369,-0.064147829
100,0,0.9,2,48.92086331,1324,-9332,1086,-922,-447,-2245,-3420.506504,-6244.535828,249.5955264,-213.037037,-96.92592593,3050.19684,59.4,66.05,60.48195119,66.01891242,0,0,0.048111974,-0.072409479
100,0,0.9,2,49.64028777,1505.607077,-9322,1100.29661,-912,-556.8070534,-2439.770995,-924.5685637,-2761.934581,3185.635497,461.037037,-314.0740741,3361.431753,59.4,66.05,60.49,65.93238175,0,0,0.008048808,-0.086530671
100,0,0.9,2,50.35971223,1660,-9312,1106,-902,-655,-2623,1390,-958,5192,824,-431,3494,59.4,66.05,60.49,65.83609009,0,0,0,-0.096291655
100,0,0.9,3,51.07913669,1086,-9589.949713,732,-931.5169492,-663.1118721,-2737.041347,2909.889076,-3660.99569,5861.538366,727.5499208,843.5,2079.5,59.4,66.05,60.49,65.79180516,0,0,0,-0.044284933
100,0,0.9,3,51.79856115,512,-9910,358,-983,-666,-2850,4464,-6698,6154,484,2118,665,59.4,66.04921387,60.49,65.75594023,0,-0.000786133,0,-0.035864932
100,0,0.9,3,52.51798561,742,-9956.499299,371.6733068,-1041.983051,-649.5,-3014.149615,7051.264074,-7117.311076,-1592,-681.5499208,1062,1118.7329,59.4,65.99623535,60.49,65.71590611,0,-0.052978516,0,-0.040034116
100,0,0.9,3,53.23741007,972,-10008,410,-1079,-633,-3213,8744,-7454,-9338,-1700,6,1907,59.4,65.98,60.49,65.6506036,0,-0.016235352,0,-0.065302512
100,0,0.9,3,53.95683453,862.0589892,-11247.55099,898.3266932,-1076.8,-694.1120092,-3441.453676,5017.640684,-8305.380565,-4770.37037,-1358.555556,37.22274113,2775.252623,59.4,65.98,60.49,65.54910181,0,0,0,-0.101501791
100,0,0.9,3,54.67625899,550,-12440,1362,-1071,-771,-3706,-2009.163077,-9359.801393,3712.37037,-724.4444444,125.5565934,3686.792978,59.4,66.01808467,60.50038673,65.46350985,0,0.038084673,0.010386729,-0.085591955
100,0,0.9,3,55.39568345,-962,-12208,836,-1051,-793,-4023,-6108,-9876,8280,-383,263,4109,59.4,66.05,60.52526969,65.38278833,0,0.031915327,0.024882964,-0.080721524
100,0,0.9,3,56.11510791,-970,-10864,490,-1038,-835,-4250,-6450,-8478,6732,-1071,676,4060,59.4,66.05,60.54648891,65.30195133,0,0,0.021219214,-0.080836999
100,0,0.9,3,56.83453237,-791.5606045,-11093.66728,285.7802378,-996.4098361,-946.510406,-4517.06397,-5258.444444,-7779.413471,3823.037889,-1190.269685,424.2592593,4228.518519,59.4,66.05,60.55,65.21652003,0,0,0.003511093,-0.085431303
100,0,0.9,3,57.55395683,-336.2323202,-11607.33457,131.2234522,-938.3715847,-1101.634338,-4787.017469,-3045.555556,-7279.827834,386.1856114,-1258.357065,-43.25925926,4541.481481,59.4,66.05,60.55,65.12764536,0,0,0,-0.088874668
100,0,0.9,3,58.27338129,276,-12142,70,-909,-1205,-4953,-1854,-7022,-1272,-1280,-295,4710,59.4,66.015,60.55,65.03992752,0,-0.035,0,-0.087717839
100,0,0.9,3,58.99280576,1709.996907,-12710.59219,324.8031278,-958.6367436,-1238.911644,-5025.368245,-3248,-6942,1242,-901,-131,4486,59.4,65.98,60.55,64.95058594,0,-0.035,0,-0.089341583
100,0,0.9,3,59.71223022,4025.135699,-13366.74861,924.8083407,-1072.61465,-1258.735123,-5082.68844,-4952,-7248,3042,-1263,66,3764,59.4,65.98,60.55,64.8453125,0,0,0,-0.105273438
100,0,0.9,4,60.43165468,6193.206641,-13908.53073,1623.409383,-1198.535231,-1278.691041,-5120.414415,-3790,-7966,2410,-1421,184,3337,59.4,65.98,60.55,64.84154081,0,0,0,-0.00377169
100,0,0.9,4,61.15107914,7186,-14134,2174,-1284,-1313,-5134,-3516.09555,-8031.072572,1725.855921,-1353.011949,169.232,3075.861087,59.4,65.98,60.55,64.89383065,0,0,0,0.052289843
100,0,0.9,4,61.8705036,7224,-13968,2512,-1320,-1401,-4968,-3312.187493,-8076.336643,971.0579111,-1182.355846,134.016,2872.334723,59.4,65.98699155,60.55,64.95039487,0,0.00699155,0,0.056564217
100,0,0.9,4,62.58992806,5794,-12202,2966,-1323,-1842,-4519,-3173.031662,-8104.864429,273.5319407,-958.9937697,91.984,2697.377815,59.4,66.00743987,60.55,64.96732139,0,0.020448317,0,0.016926521
100,0,0.9,4,63.30935252,3926.727872,-9873.891139,2805.420397,-1348.729554,-2171.748825,-3740.411862,-3093.383887,-8119.728143,-238.7960198,-732.8877953,56.768,2521.947272,59.4,66.03525874,60.55,64.91460411,0,0.027818873,0,-0.052717281
100,0,0.9,4,64.02877698,1970,-7246,2456,-1372,-2428,-2755,-3068,-8124,-438,-554,42,2317,59.4,66.06813829,60.55,64.9,0,0.032879547,0,-0.014604112
100,0,0.9,4,64.74820144,268,-4492,1842,-1359,-2603,-1662,-3209,-7954,-104.8,-416.4860952,51.59509202,2072.586829,59.4,66.11528377,60.55,64.9,0,0.047145487,0,0
100,0,0.9,4,65.4676259,302.1531235,-3730.850993,1711.861725,-1264.137591,-2348.333333,-1178.057115,-3350,-7784,276,-313,65,1811,59.4,66.16578625,60.54799807,64.92395008,0,0.050502476,-0.002001933,0.02395008
100,0,0.9,4,66.18705036,400.9788842,-3127.009272,1638.406492,-1048.957084,-1711.666667,-856.3702447,-3310,-8132,336,-260,71,1538,59.4,66.21432216,60.54114078,64.99056768,0,0.048535913,-0.006857287,0.0666176
100,0,0.9,4,66.90647482,559.0268671,-2672.039073,1595.163503,-756.5057742,-884,-618.8802441,-3114,-8084,804,-132,63,1213,59.4,66.26119627,60.52950792,65.07331328,0,0.046874105,-0.011632865,0.0827456
100,0,0.9,4,67.62589928,770.8466573,-2357.504636,1555.661957,-429.8309591,-56.33333333,-387.5279671,-3456,-7750,972,-121,55,1089,59.4,66.27,60.51320414,65.14530688,0,0.008803732,-0.016303777,0.0719936
100,0,0.9,4,68.34532374,1030.98784,-2174.970199,1493.431056,-111.9799354,580.3333333,-84.25426767,-3220.139308,-7654.228691,856,-113.0535918,79.5,894.8780584,59.4,66.27,60.49233412,65.17966848,0,0,-0.020870023,0.0343616
100,0,0.9,4,69.0647482,1334,-2116,1382,154,835,369,-2740,-7618,740,-102,104,721,59.4,66.27,60.42581941,65.18,0,0,-0.066514702,0.00033152
100,0,0.9,4,69.78417266,1982,-2584,1062,366,590,1281,-1874.525134,-7823,749.9393939,-44.92534722,87,621.8677043,59.4,66.27385411,60.35081088,65.18,0,0.003854112,-0.075008536,0
100,0,0.9,4,70.50359712,2105.753384,-2532,679.2196064,560.2590686,417.4096191,1961.019228,-1202,-8028,772,23,70,575,59.4,66.38617136,60.31660023,65.18,0,0.112317246,-0.034210645,0
100,0,0.9,4,71.22302158,2195.952557,-2408,237.5120572,745.1104542,269.4399937,2552.552774,-1121.335558,-7876,807.7074462,60.04861111,70.5,591.575,59.4,66.58458211,60.25344102,65.18,0,0.198410755,-0.063159213,0
100,0,0.9,4,71.94244604,2256.075038,-2260,-180.4052952,925.2323056,139.5655587,3084.976706,-1092,-7724,872,78,71,626,59.4,66.77501688,60.18092649,65.18,0,0.190434766,-0.072514527,0
100,0,0.9,4,72.6618705,2289.598346,-2136,-491.8150984,1105.302771,21.26074914,3587.667092,-1305.403689,-7780.982249,1062.717373,77.49354839,64.5,694.425,59.4,66.92277225,60.18,65.21042754,0,0.147755369,-0.000926493,0.030427536
100,0,0.9,4,73.38129496,2300,-2084,-614,1290,-92,4090,-1538,-7904,1310,76,58,745,59.4,67.03904857,60.18,65.271798,0,0.116276319,0,0.061370468
100,0,0.9,4,74.10071942,2078.009119,-2491.682733,-498.6064982,1479.476518,-193.8986896,4570.216574,-1561.161726,-8185.017751,1533.635787,12.71425969,70,730,59.4,67.13381701,60.18,65.33519365,0,0.094768444,0,0.063395649
100,0,0.9,4,74.82014388,1760,-3128,-352,1673,-292,5050,-1580,-8400,1660,-77,82,715,59.4,67.20923644,60.18,65.40884419,0,0.075419432,0,0.073650538
100,0,0.9,4,75.53956835,1604,-3544,-308,1874,-402,5589,-1633.768538,-8315.560281,1644.608,-126.072782,81.896,727.1428149,59.4,67.24,60.18,65.49672076,0,0.030763557,0,0.087876571
100,0,0.9,4,76.25899281,1578,-3818,-356,2011,-474,5936,-1718.979605,-8113.400843,1607.904,-166.3808671,81.648,758.4284448,59.4,67.24,60.18,65.60279451,0,0,0,0.106073748
100,0,0.9,4,76.97841727,1746,-4370,-520,2214,-542,6424,-1810.706403,-7870.261264,1564.096,-202.0525613,81.352,801.1426672,59.40386272,67.24,60.1766132,65.74673389,0.003862717,0,-0.003386802,0.143939383
100,0,0.9,4,77.69784173,1776,-4834,-590,2356,-566,6707,-1884.022134,-7662.881124,1527.392,-237.2161703,81.104,847.5712597,59.44578557,67.24,60.13676775,66.00915818,0.041922854,0,-0.039845451,0.262424287
100,0,0.9,4,78.41726619,1581.555556,-5415.721641,-720.3396994,2505.552702,-452.7288182,7006.818545,-1914,-7568,1512,-276,81,890,59.47390073,67.22082645,60.09847849,66.04193486,0.02811516,-0.019173554,-0.038289259,0.032776682
100,0,0.9,4,79.13669065,1220.444444,-6063.014463,-882.8514417,2651.701382,-181.9020809,7300.44331,-1798.934473,-7556.495516,1547.259259,-316.5040404,103.4043596,924.9352221,59.49332778,67.13499847,60.06232268,66.00170019,0.019427054,-0.085827977,-0.036155807,-0.040234673
100,0,0.9,4,79.85611511,1026,-6680,-998,2755,143,7507,-1540.757835,-7548.803314,1612.740741,-358.3613861,148.6976082,961.7432841,59.50958169,67.0454974,60.02579639,65.946362,0.016253902,-0.089501071,-0.036526293,-0.055338189
100,0,0.9,4,80.57553957,1044.301772,-7263.324076,-1054.357289,2821.58144,563.9095567,7617.787301,-1270,-7546,1648,-408,184,1012,59.52450891,67.0215552,59.98713736,65.89620964,0.014927228,-0.023942198,-0.038659032,-0.050152364
100,0,0.9,4,81.29496403,1095.047987,-7820.510992,-1095.85554,2873.235165,1095.410437,7698.753786,-958.6153846,-7842.254237,1525,-474.5612877,202.8367621,1100.67626,59.54049709,67.0451472,59.9438466,65.84726875,0.015988171,0.023592,-0.043290756,-0.048940888
100,0,0.9,4,82.01438849,1172,-8272,-1126,2894,1593,7781,-764,-8162,1402,-553,212,1227,59.55624177,67.0860192,59.94,65.76710428,0.01574469,0.040872,-0.003846602,-0.080164469
100,0,0.9,4,82.73381295,1404.04988,-8550.397446,-1151.408995,2872.355882,2044.52284,7866.83594,-892,-8190,1514,-639,188,1400,59.56950207,67.1297712,59.94,65.69093026,0.013260297,0.043752,0,-0.076174016
100,0,0.9,4,83.45323741,1772,-8862,-1164,2828,2385,7971,-1215.564668,-8008.058211,1601.377892,-711.750824,219.3688525,1517.498046,59.57803707,67.1620032,59.94,65.69,0.008534995,0.032232,0,-0.000930264
100,0,0.9,4,84.17266187,2200,-9580,-840,2763,2538,8155,-1472,-7824,1646,-779,274,1605,59.58,67.17,59.94,65.69,0.001962933,0.0079968,0,0
100,0,0.9,4,84.89208633,2438.896204,-10284.49576,-371.2511898,2631.93816,2470.486172,8271.4178,-1492.645658,-7820.56318,1600.853047,-848.6090536,334.6035216,1668.563491,59.58,67.17,59.94,65.69,0,0,0,0
100,0,0.9,4,85.61151079,2548,-10898,96,2461,2340,8341,-1501.280276,-7818.614923,1493.039427,-916.1741951,398.4128719,1720.012736,59.59898438,67.17,59.94,65.71214844,0.018984375,0,0,0.022148438
100,0,0.9,4,86.33093525,2538,-11328,416,2279,2179,8364,-1526,-7818,1364,-971,428,1768,59.64,67.17,59.94,65.76,0.041015625,0,0,0.047851563
100,0,0.9,4,87.05035971,2536,-12076,734,2000,1801,8339,-2516,-7938,1198,-1008,375,1814,59.64,67.17,59.90214126,65.71583147,0,0,-0.037858742,-0.044168532
100,0,0.9,4,87.76978417,2546,-12614,776,1815,1470,8302,-2563.804645,-7915,921.7189055,-1044.667384,419.1933846,1789.561076,59.64494606,67.17577041,59.88,65.70154081,0.004946061,0.005770405,-0.022141258,-0.014290657
100,0,0.9,4,88.48920863,2330.729117,-12624.96828,709.8989886,1609.717011,1085.570665,8164.620612,-2602,-7892,740,-1065,501,1744,59.6915978,67.23019744,59.88,65.81039487,0.04665174,0.05442703,0,0.108854061
100,0,0.9,4,89.20863309,1881.236012,-12630.48414,548.686866,1412.30295,700.2312684,7909.235738,-2897.132927,-8086.423253,760.1548822,-1035.882031,609.6191682,1700.2948,59.7,67.24,59.87704808,65.83,0.008402198,0.009802565,-0.002951917,0.019605129
100,0,0.9,4,89.92805755,1492,-12632,348,1324,470,7600,-3369.23313,-8568.846507,816.7542088,-978.3196184,732.5318063,1647.863581,59.7,67.24,59.86155923,65.83,0,0,-0.015488855,0
100,0,0.9,4,90.64748201,1213.763076,-12046.25952,-19.46969547,1329.97451,390.0505883,7192.556687,-3616,-9188,904,-937,791,1578,59.7,67.20974592,59.83804012,65.83,0,-0.030254081,-0.023519107,0
100,0,0.9,4,91.36690647,1066,-11108,-286,1346,345,6698,-1844,-10152,1156,-924,683,1455,59.7,67.1493918,59.80941003,65.82487751,0,-0.060354117,-0.02863009,-0.005122495
100,0,0.9,4,92.08633094,1085.127871,-10365.60764,-186.0672083,1467.52549,323.5945008,6177.171287,-1945.86692,-9285,542,-957.5603448,559.1713666,1512.056175,59.7,67.05120147,59.76437106,65.77225565,0,-0.098190333,-0.045038966,-0.052621858
100,0,0.9,4,92.8057554,1132,-9796,-10,1579,304,5630,-2136,-8418,-72,-992,487,1570,59.70658254,66.9480556,59.76,65.7394021,0.006582536,-0.103145871,-0.004371065,-0.03285355
100,0,0.9,4,93.52517986,1254,-9532,156,1545,267,5082,-2348,-8500,160,-993,505,1571,59.73,66.84017631,59.76,65.71256271,0.023417464,-0.107879283,0,-0.026839388
100,0,0.9,4,94.24460432,1628,-9982,86,1266,231,4045,-2112,-8692,730,-1060,597,1642,59.75341746,66.7252546,59.76,65.69433044,0.023417464,-0.114921716,0,-0.018232267
100,0,0.9,4,94.96402878,2016,-10722,-176,995,254,3065,-1835.386203,-8846.771335,761.2736256,-1140.694683,586,1760.882709,59.76,66.6010666,59.75446289,65.69,0.006582536,-0.124188,-0.005537109,-0.004330443
100,0,0.9,4,95.68345324,2566,-11234,-548,515,335,1458,-1612,-9016,786,-1221,575,1907,59.76,66.461011,59.70553711,65.69,0,-0.140055595,-0.048925781,0
100,0,0.9,4,96.4028777,3276.439276,-10522.59259,-556.9764183,140.3051272,311.7710447,294.0785193,-1485.107872,-9271.816134,878.9463363,-1290.408042,606.9319471,2074.207155,59.76,66.32845202,59.7,65.71583147,0,-0.132558989,-0.005537109,0.025831468
100,0,0.9,4,97.12230216,4002.886305,-9201.407407,-559.9916867,-180.5750118,251.6532005,-668.4940309,-1426,-9584,1052,-1350,678,2222,59.76,66.2,59.7,65.76,0,-0.128452015,0,0.044168532
100,0,0.9,4,97.84172662,4336,-8490,-568,-415,169,-1343,-1912,-9938,1422,-1395,812,2305,59.76,66.06553672,59.7,65.71583147,0,-0.134463276,0,-0.044168532
100,0,0.9,4,98.56115108,3643.242206,-15169,-1404.539059,-592.0793184,-13.03452827,-1709.767377,-1264,-10578,1508,-1464,883,2479,59.76,65.948668,59.7,65.69163035,0,-0.116868727,0,-0.024201114
100,0,0.9,4,99.28057554,2864,-21848,-2234,-679,-214,-2057,-1369.259259,-10551.03704,1237.333333,-1508.21851,925.5342913,2702.201583,59.76,65.85625805,59.7,65.71403066,0,-0.092409944,0,0.022400312
100,0,0.9,4,100,2770.46728,-14935,-903.0524506,-534.9785109,-299.9248596,-2829.124322,-1564.740741,-10500.96296,734.6666667,-1543.775686,958.7946973,2949.014367,59.76,65.77459489,59.7,65.74461196,0,-0.081663165,0,0.030581295
100,0,0.9,1,0,2668,-8022,1300,-288,-404,-3370,-1670,-10474,464,-1584,1000,3165,59.76,65.69,59.7,65.76,0,-0.084594888,0,0.01538804
100,0,0.9,1,0.757575758,-797.1657829,-8936,3458.052451,-19.0214891,-848.8292015,-2871.457198,-1335.007634,-11612.17123,960,-1645.501962,1082.229336,3315.563628,59.76,65.5492911,59.7,65.76,0,-0.140708904,0,0
100,0,0.9,1,1.515151515,-4578,-9850,4744,147,-1566,-2251,-716,-12770,1456,-1695,1139,3475,59.76,65.4323701,59.7,65.76980256,0,-0.116920995,0,0.009802565
100,0,0.9,1,2.272727273,-5086,-4430,1196,-22,-2424,-2083,128.0076336,-12790.18848,1171.678689,-1712.120763,1100.5,3737.421422,59.76,65.35437163,59.7,65.82422959,0,-0.07799847,0,0.05442703
100,0,0.9,1,3.03030303,-3884,-2372,-3646,-728,-1922,-2242,688,-12810,874,-1724,1062,4040,59.76,65.26389627,59.7,65.83,0,-0.09047536,0,0.005770405
100,0,0.9,1,3.787878788,-3764.362995,-7133,-3568.516614,-600.2890947,-556.8860791,-2774.14704,637.9896514,-13355.64029,853.3213115,-1733.779832,1077.653846,4331.884467,59.76,65.18,59.7,65.83,0,-0.083896271,0,0
100,0,0.9,1,4.545454545,-3648,-11894,-3344,-358,470,-3392,506,-13882,846,-1746,1106,4597,59.76,65.1338966,59.7,65.83,0,-0.046103401,0,0
100,0,0.9,1,5.303030303,881.4832244,-10886.63836,2326.516614,0.28909465,365.2737639,-3806.942037,-46.69887026,-13616,970.6570681,-1777.696278,1129.499264,4802.481549,59.76,65.09027094,59.7,65.84120293,0,-0.043625658,0,0.011202931
100,0,0.9,1,6.060606061,5296,-9020,7850,244,132,-4019,-1148,-13350,1242,-1829,1166,4980,59.76,65.0439202,59.7,65.90340525,0,-0.04635074,0,0.06220232
100,0,0.9,1,6.818181818,3962,-6982,3654,-1000,-309,-3997,-3851.751799,-14446,1767.485487,-1909.593169,1301.00846,5177.255419,59.76,65.04,59.7,65.91,0,-0.0039202,0,0.006594749
100,0,0.9,1,7.575757576,1528.945625,-7048.83247,-222.0654497,-979.3609626,-78.5,-4304.5,-6458,-15542,2374,-2007,1524,5289,59.75940159,65.04069815,59.69940159,65.91069815,-0.000598412,0.000698148,-0.000598412,0.000698148
100,0,0.9,1,8.333333333,-116,-7206,-2320,-938,152,-4612,-7391.538983,-15285.65106,2758.667697,-2121.058172,1795.058622,5153.002604,59.71714635,65.08999593,59.65714635,65.95999593,-0.042255241,0.049297781,-0.042255241,0.049297781
100,0,0.9,1,9.090909091,1702,-7718.16753,-600,-887.5911771,135.2965517,-4489.682825,-7792,-14580,3136,-2190,2147,4814,59.7,65.11,59.64,65.98,-0.017146346,0.020004071,-0.017146346,0.020004071
100,0,0.9,2,9.848484848,3520,-8140,1120,-813,96,-4251,-5358,-11638,3640,-2110,2633,3875,59.7,65.11,59.64,65.98,0,0,0,0
100,0,0.9,2,10.60606061,2668.34018,-8070,151,-672.0761013,-32.29655172,-3913.500659,-3310,-9710,3346,-1957,2949,2973,59.7,65.13847168,59.64,66.00847168,0,0.02847168,0,0.02847168
100,0,0.9,2,11.36363636,1806,-8000,-818,-494,-138,-3596,-1213.537747,-6575.820404,3267.553039,-1308.45451,3007.005483,1337.135112,59.70059841,65.17952982,59.64,66.05,0.000598412,0.041058139,0,0.04152832
100,0,0.9,2,12.12121212,1794,-8054,-756,-326,-89,-3451,-38,-2268,3162,-774,3027,233,59.74285365,65.14034806,59.64,66.05,0.042255241,-0.039181763,0,0
100,0,0.9,2,12.87878788,2356.53671,-7911,-33.34095119,-231.9770823,-60.92839196,-3214.008015,-2316,3984,-2688,-784,879,1409,59.76,65.09362015,59.64,66.05980256,0.017146346,-0.046727904,0,0.009802565
100,0,0.9,2,13.63636364,3108,-7768,822,-189,-48,-2885,-1556,2747.537826,-2405.718378,-547.9208993,-102.0639001,1090.978674,59.76,65.05260946,59.64,66.11422959,0,-0.041010696,0,0.05442703
100,0,0.9,2,14.39393939,3390,-8026,1082,-225,-60,-2397,-796,1016,-1834,-152,-523,458,59.76,65.00212914,59.64,66.12,0,-0.050480319,0,0.005770405
100,0,0.9,2,15.15151515,3146,-8084,986,-201,-82,-2104,-833.8518519,40.92711489,-871.4654932,176.8606269,-479.7589072,-400.1679719,59.76,64.97,59.64,66.12027295,0,-0.032129136,0,0.000272954
100,0,0.9,2,15.90909091,3166,-8048,576,-156,-37,-1744,-904.1481481,-752.2671243,355.3755602,508.5988559,-397.6289255,-1506.170591,59.76,64.97,59.64,66.14791471,0,0,0,0.027641756
100,0,0.9,2,16.66666667,3090.157303,-8095.703704,773.037037,-126.2875662,-45.69100529,-1405.447815,-942,-1136,1092,820,-348,-2547,59.76,64.97,59.64,66.20310468,0,0,0,0.055189966
100,0,0.9,2,17.42424242,2906.314607,-8184.296296,1138.962963,-102.3540149,-63.93756614,-1084.551088,-648,-1200,1248,1095,-342,-3392,59.76,64.97,59.64,66.26049039,0,0,0,0.05738571
100,0,0.9,2,18.18181818,2680,-8232,1336,-80,-80,-809,-811.6787565,-1461.128579,400.1939499,1378.756562,-441.5598882,-3927.935978,59.73497942,64.97,59.64,66.30573712,-0.025020576,0,0,0.045246733
100,0,0.9,2,18.93939394,2375.443731,-8174.670112,1191.204565,-58.80023748,-90.25471125,-545.1563518,-1134,-1848,-702,1667,-581,-4344,59.7,64.97,59.64,66.35,-0.034979424,0,0,0.044262881
100,0,0.9,2,19.6969697,1973.359372,-8059.562446,889.0757961,-38.90982748,-99.13799392,-310.4115092,-1554,-2224,-1070,1958,-644,-4683,59.7,64.92214844,59.64,66.38680619,0,-0.047851563,0,0.036806187
100,0,0.9,2,20.45454545,1564,-7972,628,-17,-107,-209,-1950.084112,-2571.205769,-999.8716167,2298.915668,-677.1451613,-5159.729007,59.69756908,64.90634525,59.64,66.48153054,-0.002430921,-0.015803191,0,0.094724355
100,0,0.9,2,21.21212121,1187.655908,-7928.662791,442.3948647,8.594315301,-115.3670213,-217.7622699,-2166,-2962,-852,2599,-692,-5636,59.67676601,64.96395923,59.64,66.74950151,-0.020803072,0.05761398,0,0.267970971
100,0,0.9,2,21.96969697,778,-7908,344,38,-120,-238,-2062.296296,-3505.750983,-546.9689778,2788.844941,-659.729643,-6007.996704,59.65095417,65.04749474,59.64,66.90605799,-0.025811837,0.083535515,0,0.156556478
100,0,0.9,2,22.72727273,270,-7970,396,74,-109,-281,-1869.703704,-4169.924212,-143.3733778,2940.19028,-594.1259527,-6334.688797,59.64,65.11524787,59.64,67.03404602,-0.01095417,0.067753131,0,0.12798803
100,0,0.9,2,23.48484848,336,-7988.540158,588.4486169,92.03827751,-109.5,-346.4211302,-1766,-4884,58,3091,-542,-6596,59.64,65.16921789,59.64,67.18697323,0,0.053970013,0,0.152927206
100,0,0.9,2,24.24242424,402,-8012,926,100,-110,-403,-2003,-5693.131899,-244.4737516,3258.796226,-512.5541516,-6796.241668,59.64,65.16539589,59.64885406,67.2678748,0,-0.003821997,0.008854061,0.080901573
100,0,0.9,2,25,206,-8280,1472,82,-91,-426,-2240,-6478,-554,3416,-498,-6946,59.64,65.11267861,59.69220843,67.30884414,0,-0.052717281,0.043354366,0.040969338
100,0,0.9,2,25.75757576,474,-8284.664213,1415,38.0849175,-91.80769231,-487.4060759,-2228,-7068,-562,3545,-506,-7043,59.66735599,65.16087831,59.72801991,67.40215294,0.027355994,0.048199703,0.035811485,0.093308802
100,0,0.9,2,26.51515152,742,-8286,1358,-18,-94,-571,-2248.160859,-7472.00538,-486.2962963,3660.149575,-560.1090314,-7151.990141,59.69932617,65.26896522,59.7636577,67.46868383,0.031970178,0.108086913,0.035637785,0.066530891
100,0,0.9,2,27.27272727,588,-8211,1474,-69.25098288,-112.6923077,-658.0427909,-2290.099496,-7800.893446,-345.7037037,3766.462054,-668.7067831,-7262.696038,59.65391602,65.36368496,59.80139505,67.36964888,-0.045410156,0.094719741,0.037737353,-0.09903495
100,0,0.9,2,28.03030303,434,-8136,1590,-116,-130,-737,-2326,-8076,-270,3857,-790,-7347,59.64,65.42433221,59.83791629,67.28764553,-0.013916016,0.060647248,0.036521238,-0.082003349
100,0,0.9,2,28.78787879,452.092545,-8226,1480.556962,-152.8198949,-129.1835443,-786.586439,-2346.016653,-8288.879962,-416,3933.903178,-929.2367882,-7393.537773,59.64,65.4620767,59.87296361,67.24175593,0,0.037744491,0.035047325,-0.045889604
100,0,0.9,2,29.54545455,506,-8316,1326,-185,-127,-834,-2364,-8498,-562,3991,-1066,-7439,59.64,65.49969837,59.90801991,67.24,0,0.037621665,0.035056299,-0.001755928
100,0,0.9,2,30.3030303,850,-8108,1254,-214,-119,-900,-2384,-8786,-482,4022,-1159,-7517,59.64,65.54673361,59.9436577,67.23955545,0,0.047035238,0.035637785,-0.000444547
100,0,0.9,2,31.06060606,1020,-7794,1110,-249,-115,-976,-2382.670385,-9214.423787,-173.7172012,3995.914524,-1177.51985,-7618.37943,59.64,65.661381,59.98139505,67.20001265,0,0.114647399,0.037737353,-0.039542799
100,0,0.9,2,31.81818182,1120.625969,-7518.494807,1124.070202,-291.5317145,-126,-1032.656904,-2378,-9746,76,3948,-1184,-7680,59.64,65.65870548,60.02158004,67.13078904,0,-0.00267553,0.040184987,-0.069223617
100,0,0.9,2,32.57575758,1268,-7372,1170,-358,-137,-1073,-2012,-10384,-12,3897,-1144,-7662,59.64,65.54573987,60.05845924,67.03444075,0,-0.112965601,0.0368792,-0.096348286
100,0,0.9,2,33.33333333,2206,-8764,1802,-542,-83,-1094,-1695.472326,-10811.01697,-143.2132174,3863.257572,-1152.173653,-7616.033717,59.64,65.54,60.03,66.96726961,0,-0.005739874,-0.028459236,-0.067171142
100,0,0.9,2,34.09090909,1232,-7722,684,-473,-189,-1087,-1528,-11074,-256,3825,-1172,-7541,59.63794239,65.54,60.0025999,66.94,-0.002057613,0,-0.027400097,-0.02726961
100,0,0.9,2,34.84848485,1141.631172,-7888.444444,774.2222222,-490.919706,-189.4681316,-1093.149302,-1533.882353,-11164.53773,-314.8969697,3752.397721,-1232.453919,-7425.067916,59.59555556,65.54,60.06843202,66.94,-0.042386831,0,0.065832116,0
100,0,0.9,2,35.60606061,1098.254509,-8197.555556,941.7777778,-527.950523,-189.6274898,-1109.743049,-1544,-11242,-342,3637,-1311,-7263,59.58,65.54,60.15397638,66.94,-0.015555556,0,0.085544366,0
100,0,0.9,2,36.36363636,1058,-8364,1032,-559,-190,-1134,-1555.117647,-11362.46166,-210.6734694,3417.294977,-1360.885761,-7052.209501,59.58,65.54,60.2570426,66.94,0,0,0.103066219,0
100,0,0.9,2,37.12121212,995.9332873,-8280.518519,1004,-574.267305,-202.7346939,-1204.231446,-1562,-11552,18,3123,-1415,-6779,59.55,65.575,60.35986731,66.94,-0.03,0.035,0.102824705,0
100,0,0.9,2,37.87878788,936.5221992,-8125.481481,952,-586.4048389,-225.7006803,-1324.355244,-1488,-12090.98475,278.6734694,2786.461955,-1502.145758,-6420.059728,59.52,65.61,60.43014068,66.95147975,-0.03,0.035,0.070273375,0.011479748
100,0,0.9,2,38.63636364,910,-8042,924,-604,-238,-1440,-1414,-12770,442,2474,-1611,-5980,59.52,65.61,60.4678244,67.17741095,0,0,0.037683719,0.225931203
100,0,0.9,2,39.39393939,982,-8070,968,-642,-233,-1531,-1610,-13246,380,2277,-1736,-5448,59.52,65.62855469,60.52711788,67.24,0,0.018554688,0.059293477,0.062589049
100,0,0.9,2,40.15151515,864,-8098.243243,992.6445622,-670.2948547,-239.2743902,-1609.49201,-1998.293025,-12725.40741,360.2794529,1938.997359,-1725.484618,-4491.758095,59.52,65.68910156,60.6062521,67.24,0,0.060546875,0.079134221,0
100,0,0.9,2,40.90909091,746,-8114,1026,-699,-254,-1687,-2559.94254,-11758.59259,349.1250514,1490.579424,-1695.413681,-3211.984796,59.51486784,65.68315712,60.63101102,67.18744035,-0.00513216,-0.005944442,0.024758919,-0.05255965
100,0,0.9,2,41.66666667,1350,-7898,1186,-739,-287,-1774,-3186,-11238,324,1022,-1648,-1925,59.50059264,65.66412352,60.64493377,67.05323361,-0.0142752,-0.0190336,0.013922746,-0.13420674
100,0,0.9,2,42.42424242,1814,-7548,1126,-790,-310,-1813,-3902,-11298,124,549,-1497,-732,59.48286144,65.64048192,60.65930032,66.91551506,-0.0177312,-0.0236416,0.014366556,-0.137718555
100,0,0.9,2,43.18181818,2190,-7814,620,-856,-371,-1868,-4130,-11320,308,-83,-1179,779,59.46743424,65.61991232,60.68984398,66.84277913,-0.0154272,-0.0205696,0.030543657,-0.072735927
100,0,0.9,2,43.93939394,2257.367984,-7902.174671,639.3104291,-842.2592593,-452.5970699,-1880.805424,-4440.097151,-10471,162.5007236,-448.6773117,-898.784257,1595.044747,59.46007104,65.61009472,60.72947315,66.79610846,-0.0073632,-0.0098176,0.039629168,-0.046670673
100,0,0.9,2,44.6969697,2287.362631,-7952.73318,699.9541916,-816.7407407,-549.2263308,-1888.458268,-4686,-9622,-132,-688,-690,2191,59.46,65.61,60.73,66.71548789,-7.10E-05,-9.47E-05,0.000526854,-0.080620564
100,0,0.9,2,45.45454545,2362,-8080,806,-803,-653,-1891,-4768,-9948,-548,-817,-588,2675,59.46,65.61306127,60.73,66.62275766,0,0.003061266,0,-0.092730229
100,0,0.9,2,46.21212121,3112,-10868,1410,-842,-767,-1815,-3784,-23560,-2080,-1401,-386,2496,59.46,65.67330959,60.73,66.5389743,0,0.060248321,0,-0.083783366
100,0,0.9,2,46.96969697,-150,-11498,1450,-882,-744,-1760,-1494,-16456,840,-1035,-1119,2957,59.46,65.67630137,60.73,66.42508762,0,0.002991783,0,-0.113886671
100,0,0.9,2,47.72727273,276,-9652,112,-969,-527,-2007,-3340,-2452,3744,-230,30,3882,59.46,65.61487158,60.73,66.28130788,0,-0.061429795,0,-0.143779748
100,0,0.9,3,48.48484848,758.1882793,-9429.798066,336,-1014.939938,-616,-2125.587385,-7498,-8090,3720,-618,663,3301,59.42735599,65.57242085,60.69735599,66.1866193,-0.032644006,-0.042450723,-0.032644006,-0.094688571
100,0,0.9,3,49.24242424,1038,-9358,560,-1052,-705,-2239,-5042.090758,-6784.37037,1749.248824,-751.1489143,1139.690819,2841.248283,59.4,65.53049399,60.67257813,66.10171728,-0.027355994,-0.041926866,-0.024777869,-0.084902024
100,0,0.9,3,50,755.2739461,-9800.721066,470,-1093.511984,-704,-2451.62173,-140.4037373,-4359.62963,-2069.795457,-832.4005289,1533.234299,2454.51303,59.4,65.47775471,60.720625,66.00749277,0,-0.052739279,0.048046875,-0.094224514
100,0,0.9,3,50.75757576,372,-10440,380,-1132,-703,-2698,3508,-3054,-4720,-934,1697,2292,59.4,65.47,60.71444444,65.95638694,0,-0.007754708,-0.006180556,-0.051105831
100,0,0.9,3,51.51515152,211.5270152,-10760.84028,391.4510881,-1170.105896,-718.1406438,-2907.925504,5190.185436,-6323,-5671.018431,-1149.96378,454.5,2417.30119,59.4,65.47,60.67205761,65.92199926,0,0,-0.042386831,-0.034387674
100,0,0.9,3,52.27272727,100.3344916,-11000.12501,426.2029015,-1208.84413,-759.0417167,-3107.014506,5978,-9592,-6092,-1298,-788,2649,59.4,65.47,60.67,65.7368874,0,0,-0.002057613,-0.185111859
100,0,0.9,3,53.03030303,-9.525277785,-11252.34724,484.8532642,-1238.910299,-818.9219313,-3314.096255,3207.037037,-9577.611606,-3272.814815,-1114.962963,-652.3043756,2945.720983,59.4,65.46398438,60.66742188,65.51682295,0,-0.006015625,-0.002578125,-0.220064448
100,0,0.9,3,53.78787879,-166,-11612,568,-1251,-891,-3548,-1939.037037,-9536.556545,1962.814815,-775.037037,-375.0531957,3282.356252,59.4,65.351875,60.619375,65.43579871,0,-0.112109375,-0.048046875,-0.081024247
100,0,0.9,3,54.54545455,-489.4708831,-12483.21643,1144.898549,-1188.267705,-1059.479142,-3839.535403,-4710,-9472,4782,-592,-151,3467,59.4,65.33,60.61,65.32686684,0,-0.021875,-0.009375,-0.108931869
100,0,0.9,3,55.3030303,-782,-13132,1674,-1118,-1190,-4148,-3427.703704,-8945.443455,2940.740741,-750.4074074,-17.16902648,3495.551152,59.4,65.33,60.61,65.191905,0,0,0,-0.134961839
100,0,0.9,3,56.06060606,-904.7620304,-12636.81481,1304.296296,-1105.079635,-1184.037037,-4450.144643,-1046.296296,-8046.388394,-478.7407407,-1044.592593,92.52659787,3510.538269,59.4,65.33,60.60400724,65.06289859,0,0,-0.005992757,-0.129006409
100,0,0.9,3,56.81818182,-992.4921263,-11717.18519,617.7037037,-1096.873151,-1172.962963,-4743.545141,236,-7570,-2320,-1203,138,3540,59.4,65.33,60.58648011,64.93131089,0,0,-0.017527129,-0.131587703
100,0,0.9,3,57.57575758,-1026,-11222,248,-1094,-1167,-4971,-783,-7913,-74,-930.5,3,3761.511314,59.4,65.33,60.56263537,64.84319759,0,0,-0.023844748,-0.0881133
100,0,0.9,3,58.33333333,-336.5722171,-11708.72,457.4651921,-1130.366464,-1175.282416,-5147.225519,-1802,-8256,2172,-658,-132,3960,59.4,65.33,60.53015602,64.83,0,0,-0.032479344,-0.013197587
100,0,0.9,3,59.09090909,1357.643349,-12869.36,977.3555764,-1223.259393,-1199.047248,-5313.778709,-1771.424,-8245.012141,1890.784,-668.4,-124.0508791,3892.998935,59.4,65.33,60.49052685,64.83,0,0,-0.039629168,0
100,0,0.9,3,59.84848485,3495.545023,-14254.64,1644.913365,-1348.36909,-1236.670872,-5453.719139,-1698.512,-8214.316422,1220.192,-693.2,-102.7126374,3719.996804,59.4,65.33,60.49,64.97004228,0,0,-0.000526854,0.14004228
100,0,0.9,4,60.60606061,5516.031132,-15415.28,2297.380769,-1481.385858,-1286.529664,-5550.10638,-1611.488,-8167.314633,419.808,-722.8,-71.74895613,3482.995206,59.4,65.32422959,60.49,65.14260024,0,-0.005770405,0,0.172557959
100,0,0.9,4,61.36363636,6858,-15902,2772,-1598,-1347,-5586,-1538.576,-8107.408563,-250.784,-747.6,-34.92351656,3223.995739,59.4,65.26980256,60.49,65.22753896,0,-0.05442703,0,0.084938724
100,0,0.9,4,62.12121212,7482,-15062,3044,-1698,-1482,-5311,-1508,-8038,-532,-758,4,2985,59.4,65.30000814,60.50714635,65.32140949,0,0.030205577,0.017146346,0.093870527
100,0,0.9,4,62.87878788,5178,-12152,3616,-1720,-1966,-4749,-2348,-7910,168,-594,57,2755,59.4,65.3986037,60.54940159,65.39907536,0,0.098595563,0.042255241,0.077665869
100,0,0.9,4,63.63636364,2521.348196,-8910.360015,3341.19934,-1657.788086,-2404.351284,-3710.741979,-2654,-7868,538,-519,75,2539,59.4,65.4,60.55,65.35323188,0,0.001396296,0.000598412,-0.045843482
100,0,0.9,4,64.39393939,970,-6154,2678,-1565,-2640,-2707,-2766,-8064,464,-467,81,2216,59.4,65.4,60.55257813,65.22641224,0,0,0.002578125,-0.126819634
100,0,0.9,4,65.15151515,3613,-4387.451607,268.0013399,-1521.429512,-2333.144104,-2116.792728,-2772,-7946,318,-398,80,2028,59.4,65.4,60.600625,64.91032181,0,0,0.048046875,-0.31609043
100,0,0.9,4,65.90909091,6256,-3202,-1842,-1464,-1711,-1789,-2886.450058,-8098,470.874376,-322.46581,57.06545064,1816.692118,59.4,65.37785156,60.59791506,64.45306641,0,-0.022148438,-0.002709939,-0.457255407
100,0,0.9,4,66.66666667,4736.868617,-2446.847955,-1978.20068,-1157.937637,-697.1498068,-1728.598265,-3064,-8250,758,-257,35,1586,59.4,65.33,60.55,64.06,0,-0.047851563,-0.047915061,-0.393066406
100,0,0.9,4,67.42424242,2578,-2074,-2026,-724,252,-1666,-3194,-7936,1084,-217,60,1328,59.4,65.3579606,60.47032597,64.14735386,0,0.027960598,-0.079674025,0.087353861
100,0,0.9,4,68.18181818,1277.131383,-2034.116751,-833.819299,-360.0924878,713.7939112,-1126.405125,-3336,-8018,1224,-197,92,1104,59.4,65.42551821,60.41538141,64.30095148,0,0.067557614,-0.054944564,0.153597621
100,0,0.9,4,68.93939394,616,-2020,702,-79,925,-297,-2332,-7940,1022,-153,113,862,59.4,65.50818657,60.39487788,64.51623688,0,0.08266836,-0.020503536,0.215285399
100,0,0.9,4,69.6969697,932,-2484,1194,53,913,402,-2050.339393,-7823.27465,1014.36483,-106.220973,111.336,790.1284013,59.41898438,65.58839006,60.3788687,64.78438316,0.018984375,0.080203484,-0.016009174,0.268146283
100,0,0.9,4,70.45454545,1506,-2712,982,228,841,1342,-1863.192106,-7673.793981,1009.180434,-55.01859459,107.368,741.5090619,59.46,65.69,60.36759755,65.03990976,0.041015625,0.101609944,-0.011271156,0.255526592
100,0,0.9,4,71.21212121,1798.202703,-2311.703704,477.4976491,394.0442085,798.904983,2051.693288,-1733.075122,-7525.275988,1006.013622,-7.90572973,102.632,707.3255218,59.46,65.86551364,60.36130806,65.21733608,0,0.17551364,-0.006289482,0.177426324
100,0,0.9,4,71.96969697,2008.990241,-1568.296296,-168.5845088,558.2940854,766.6923189,2659.830825,-1622.505426,-7411.438663,1004.431207,26.60475676,98.664,678.7613211,59.45446289,66.01137732,60.36,65.25462161,-0.005537109,0.145863681,-0.001308064,0.037285531
100,0,0.9,4,72.72727273,2090,-1168,-488,739,733,3213,-1494,-7366,1004,40,97,647,59.40553711,66.09338529,60.36,65.19606865,-0.048925781,0.082007965,0,-0.05855296
100,0,0.9,4,73.48484848,2037.26404,-1396.456845,-475.4940068,960.4041931,697.7598905,3725.097199,-1317.508093,-7721,1246,24.39285714,106,605.4253247,59.4,66.19143662,60.36,65.14500941,-0.005537109,0.098051333,0,-0.051059245
100,0,0.9,4,74.24242424,1913.704108,-1947.218252,-445.6506849,1211.727125,663.5791902,4194.878407,-1216,-8076,1488,-6,115,582,59.4,66.3032665,60.36,65.11039403,0,0.111829885,0,-0.034615381
100,0,0.9,4,75,1771.292121,-2618.370534,-409.9820205,1458.686494,623.1088948,4646.220411,-1284.125,-7987.875,1487.875,-42.35776578,106.875,600.0861457,59.4,66.41629604,60.36,65.13995834,0,0.113029537,0,0.029564312
100,0,0.9,4,75.75757576,1662,-3208,-380,1667,569,5103,-1434,-7794,1487.5,-88.71594684,89,644.7297219,59.4,66.51945858,60.35970763,65.19757983,0,0.103162544,-0.000292374,0.057621489
100,0,0.9,4,76.51515152,1582.147946,-3674.002119,-353.1746575,1820.955853,469.2600156,5563.636291,-1583.875,-7600.125,1486.875,-139.7161545,71.125,701.5084371,59.4,66.6127102,60.354815,65.27754073,0,0.093251617,-0.004892622,0.079960903
100,0,0.9,4,77.27272727,1540,-4130,-338,1966,344,6030,-1652,-7512,1486,-190,63,756,59.4,66.70697222,60.34472517,65.37348131,0,0.094262016,-0.010089837,0.095940579
100,0,0.9,4,78.03030303,1642,-4592,-488,2135,228,6522,-1504.501484,-7571.765337,1480.75,-237.9044489,111.1639344,806.7616951,59.4,66.79,60.33052143,65.46337877,0,0.083027782,-0.014203737,0.089897464
100,0,0.9,4,78.78787879,1876.69323,-4943.571533,-663.2258687,2296.788082,142.0956771,6939.163626,-1274,-7698,1476,-290,167,863,59.43785874,66.85088549,60.31328711,65.52521033,0.037858742,0.060885495,-0.017234322,0.061831557
100,0,0.9,4,79.54545455,2046,-5284,-766,2440,99,7287,-1084.498516,-7964.234663,1556,-354.8416417,176.4610656,928.0611763,59.46,66.86114951,60.29318965,65.53094286,0.022141258,0.010264017,-0.020097461,0.00573253
100,0,0.9,4,80.3030303,1940,-5696,-756,2548,120,7540,-978,-8164,1636,-420,185,997,59.46,66.73954782,60.25826839,65.43293021,0,-0.121601692,-0.034921256,-0.098012646
100,0,0.9,4,81.06060606,1689.960667,-6402.291884,-762.625323,2625.913623,299.1805348,7763.154758,-1171,-7925,1612.20339,-470.0694255,215.375,1063.273475,59.46,66.57353508,60.19074019,65.36449999,0,-0.166012745,-0.067528199,-0.068430223
100,0,0.9,4,81.81818182,1339.455443,-7305.421097,-782.5839793,2689.881128,659.7036237,7964.592992,-1364,-7686,1558,-522,239,1132,59.46,66.49,60.12,65.33,0,-0.083535075,-0.070740192,-0.03449999
100,0,0.9,4,82.57575758,1054,-8138,-816,2729,1039,8108,-1290,-7747.208889,1427.12014,-598.2356941,239,1212.250707,59.49249029,66.49,60.12,65.40581067,0.032490288,0,0,0.075810672
100,0,0.9,4,83.33333333,894,-8786,-960,2745,1397,8185,-1216,-7862,1282,-673,239,1287,59.53691062,66.51766429,60.12,65.50945812,0.044420334,0.027664292,0,0.103647446
100,0,0.9,4,84.09090909,983.120161,-9144.78547,-1065.360453,2741.60219,1823.220548,8195.973372,-1677.132771,-8025.791111,1193.676471,-724.0004021,238,1352.788086,59.57663983,66.68819418,60.12,65.6021596,0.039729206,0.170529887,0,0.092701481
100,0,0.9,4,84.84848485,1192,-9508,-1118,2731,2252,8208,-2160,-8136,1150,-767,237,1388,59.58,66.76112423,60.12,65.61,0.003360172,0.07293005,0,0.007840401
100,0,0.9,4,85.60606061,1658,-10186,-994,2637,2618,8383,-2187.072802,-7989.259259,1176.962963,-806.6882242,264.2222222,1385.148148,59.58,66.79,60.12,65.61,0,0.028875772,0,0
100,0,0.9,4,86.36363636,1862.150119,-10572.35208,-782.9529861,2523.544492,2822.546175,8424.819733,-2199.388548,-7716.740741,1227.037037,-843.3099469,314.7777778,1379.851852,59.61785874,66.74583147,60.11059327,65.61,0.037858742,-0.044168532,-0.009406729,0
100,0,0.9,4,87.12121212,2042,-10886,-522,2389,2916,8440,-2224,-7570,1254,-879,342,1377,59.64,66.72,60.08915063,65.61,0.022141258,-0.025831468,-0.021442644,0
100,0,0.9,4,87.87878788,2351.086777,-11190.39628,-203.2828921,2214.200528,2817.981518,8432.748479,-2328,-7770,1168,-914,337,1379,59.64,66.72,60.06583838,65.61,0,0,-0.023312246,0
100,0,0.9,4,88.63636364,2658,-11522,42,2025,2617,8415,-2668,-7922,720,-954,400,1419,59.64658254,66.70894887,60.04838129,65.61,0.006582536,-0.011051128,-0.017457093,0
100,0,0.9,4,89.39393939,2852,-11992,116,1853,2322,8369,-2518.666667,-7890.37037,667.4095238,-970.7525773,431.7451514,1412.035154,59.67,66.66507242,60.03304803,65.61,0.023417464,-0.043876454,-0.015333259,0
100,0,0.9,4,90.15151515,2949.326599,-12307.98353,105.7192982,1615.472879,1917.430697,8192.414703,-2241.333333,-7831.62963,638.7047619,-981.8762887,454.7541305,1397.29253,59.69341746,66.60730502,60.01560541,65.61,0.023417464,-0.057767401,-0.017442622,0
100,0,0.9,4,90.90909091,3019.218855,-12558.21398,75.43859649,1347.800367,1466.854674,7881.401416,-2092,-7800,630,-993,492,1384,59.7,66.55326359,59.98949516,65.60354004,0.006582536,-0.054041429,-0.026110248,-0.006459961
100,0,0.9,4,91.66666667,3046,-12660,26,1132,1121,7553,-2231.481481,-8297.777778,779.3333333,-1004.232172,648.3801491,1373.559322,59.7,66.49522429,59.94439071,65.54645996,0,-0.058039299,-0.04510445,-0.057080078
100,0,0.9,4,92.42424242,2942,-12150,-160,1000,931,7233,-2490.518519,-9222.222222,1056.666667,-1015.464345,884.3011857,1364.112994,59.7,66.49,59.94,65.56583147,0,-0.00522429,-0.00439071,0.019371507
100,0,0.9,4,93.18181818,3010.968768,-11165.88682,-318.43837,1041.740741,765.8478831,6712.753031,-2630,-9720,1206,-1032,1006,1360,59.7,66.49,59.94,65.61,0,0,0,0.044168532
100,0,0.9,4,93.93939394,3166.159759,-9992.054522,-455.5525183,1119.259259,611.9545462,6020.214575,-1982.37037,-9515.703704,855.4814815,-1067.005219,892.962963,1454.68279,59.7,66.49,59.86925981,65.61,0,0,-0.070740192,0
100,0,0.9,4,94.6969697,3330,-9424,-514,1161,455,5232,-779.6296296,-9136.296296,204.5185185,-1124.04029,683.037037,1662.698913,59.7,66.48469388,59.80032914,65.60019744,0,-0.00530612,-0.068930665,-0.009802565
100,0,0.9,4,95.45454545,3480.674363,-9721.128049,-272,1053.304707,278.7664111,4314.273382,-132,-8932,-146,-1194,570,1870,59.7,66.43848151,59.76284569,65.54577041,0,-0.046212371,-0.037483453,-0.05442703
100,0,0.9,4,96.21212121,3642,-10312,-30,824,120,3235,-442,-9155.615385,88.0989011,-1291.459715,666,2030.2777,59.72214126,66.33585853,59.76,65.54,0.022141258,-0.102622975,-0.00284569,-0.005770405
100,0,0.9,4,96.96969697,3854.902439,-10981.99171,-291.2054986,420.8396782,5.856468692,1923.165637,-752,-9544,502,-1408,762,2206,59.76,66.2,59.76,65.54,0.037858742,-0.135858534,0,0
100,0,0.9,4,97.72727273,3986,-12048,-732,-50,-88,613,-535,-9863.080506,904.7815337,-1527.32101,740.5,2443.097169,59.76,66.15012898,59.71898438,65.54,0,-0.049871021,-0.041015625,0
100,0,0.9,4,98.48484848,3802,-14658,-1098,-392,-166,-405,-318,-10258,1310,-1641,719,2699,59.76,66.0903965,59.7,65.54,0,-0.059732481,-0.018984375,0
100,0,0.9,4,99.24242424,4609.851852,-13640.66667,-964.3784519,-738.4604665,-444.3573463,-1578.009246,-941,-10885.95731,1636.592208,-1722.302171,834.5820463,2935.00396,59.76,65.99807751,59.7,65.54,0,-0.092318989,0,0
100,0,0.9,4,100,6110.148148,-11751.33333,-557.4235705,-1059.619122,-883.1806838,-2723.393512,-1564,-11734,1974,-1817,1021,3157,59.76,65.91282246,59.7,65.57191533,0,-0.085255052,0,0.031915327
100,0,0.9,1,0,6918,-10734,132,-1201,-1235,-3239,56,-12884,2418,-2014,1156,3353,59.76,65.81906837,59.7,65.61,0,-0.093754085,0,0.038084673
100,0,0.9,1,0.746268657,-1448,-12734,3316,-256,-1414,-2846,152.3542781,-13302.87055,2407.073614,-2071.265982,1217.045421,3714.244871,59.76,65.68377749,59.7,65.61,0,-0.135290878,0,0
100,0,0.9,1,1.492537313,-3857.541586,-9856,4228.745104,213.3843693,-2142.224665,-2706.638201,204,-13646,2374,-2093,1277,4095,59.76,65.57415181,59.6915978,65.61,0,-0.109625682,-0.008402198,0
100,0,0.9,1,2.23880597,-4770,-6978,4574,420,-2738,-2651,268,-14184,2140,-2040,1403,4338,59.76,65.49779133,59.64494606,65.61,0,-0.076360483,-0.04665174,0
100,0,0.9,1,2.985074627,-4631.740962,-7927.611785,2442.888889,191.5925926,-1823.333333,-2999.01358,915.6063672,-14130,1622.010678,-2029.891751,1493.240642,4617.750447,59.76,65.3852534,59.64,65.61,0,-0.112537931,-0.004946061,0
100,0,0.9,1,3.731343284,-4220.593036,-9762.112458,-1514.888889,-232.5925926,-124.6666667,-3679.471604,1510,-14076,998,-2020,1538,4918,59.76,65.24631072,59.64,65.61,0,-0.138942676,0,0
100,0,0.9,1,4.47761194,-3542,-10960,-3646,-461,790,-4147,1476,-14250,498,-1973,1440,5232,59.76,65.10020715,59.64,65.61,0,-0.146103575,0,0
100,0,0.9,1,5.223880597,-840,-11206,998,347,360,-4270,982,-14134,666,-1949,1534,5351,59.76,64.99312687,59.64,65.61,0,-0.10708028,0,0
100,0,0.9,1,5.970149254,1136.318707,-9877.037037,667.3618116,-16.74074074,372.7037037,-4611.108498,-956.0842564,-14238.28607,625,-2061.449461,1574.024379,5650.71781,59.76,64.91781091,59.64,65.61,0,-0.07531596,0,0
100,0,0.9,1,6.71641791,2750.270465,-7408.962963,-57.05415459,-692.2592593,396.2962963,-5068.776471,-3990,-14560,584,-2216,1625,5872,59.76,64.85919292,59.64,65.61,0,-0.058617989,0,0
100,0,0.9,1,7.462686567,3418,-6080,-774,-1056,409,-5298,-7480,-17168,2632,-2281,1917,5820,59.76,64.83004129,59.64,65.61079788,0,-0.029151629,0,0.000797883
100,0,0.9,1,8.208955224,2424,-6081.315408,-1488.865371,-972.1951613,352.452165,-5127.211324,-7289.805423,-16499.44662,3369.497094,-2393.296392,2231.757988,5517.376949,59.76,64.83469017,59.64,65.6671382,0,0.004648877,0,0.056340322
100,0,0.9,2,8.955223881,1430,-6086,-1914,-823,248,-4813,-6778,-15026,3912,-2468,2563,4960,59.76,64.84597897,59.630625,65.6775,0,0.011288808,-0.009375,0.010361795
100,0,0.9,2,9.701492537,2514,-8258,1088,-678,135,-4477,-4852,-12332,4562,-2375,2914,4102,59.76,64.86239079,59.58257813,65.6134375,0,0.016411813,-0.048046875,-0.0640625
100,0,0.9,2,10.44776119,3368,-7160,650,-711,-118,-3956,-3923.142719,-7706.15033,3621.060231,-1996.67296,2768.70088,2884.559346,59.76,64.88240868,59.58,65.64385965,0,0.020017893,-0.002578125,0.030422149
100,0,0.9,2,11.19402985,3020,-8162,-234,-545,-130,-3702,-3270.803439,-2169.973232,1617.00935,-1377.329101,2391.623982,1592.113006,59.75794239,64.90595629,59.58,65.69582171,-0.002057613,0.023547612,0,0.051962056
100,0,0.9,2,11.94029851,2730.874799,-8081.633039,-176.9592533,-327.3984862,-109.8866397,-3443.521603,-2640,1550,-222,-868,1871,991,59.71555556,64.95485201,59.58,65.71761707,-0.042386831,0.048895718,0,0.021795366
100,0,0.9,2,12.68656716,2580,-7960,-28,-190,-76,-3157,-1784.742607,3281.756883,-1744.776093,-611.8269132,601.6468686,1146.5,59.70113422,64.96470697,59.58,65.73408726,-0.014421334,0.009854956,0,0.016470184
100,0,0.9,2,13.43283582,3288,-7888,466,-184,-48,-2790,-1282,4062,-2594,-344,-587,1302,59.71189504,64.9144898,59.58,65.75459147,0.010760822,-0.050217171,0,0.020504209
100,0,0.9,2,14.17910448,2990,-7742,848,-176,-59,-2478,-1790,2042,-2376,172,-848,475,59.72908176,64.83428512,59.58,65.78929735,0.017186716,-0.080204677,0,0.034705883
100,0,0.9,2,14.92537313,3047.037037,-7810.2295,813.2592593,-161.6319796,-73.3220126,-2112.662906,-1378,564,-1284,732,-1085,-898,59.74657447,64.75265247,59.58,65.83445624,0.017492711,-0.081632653,0,0.045158897
100,0,0.9,2,15.67164179,3152.962963,-7958.014557,748.7407407,-140.4511249,-89.07940908,-1720.68533,-870.7851892,73.52173098,203.6740826,1048.384482,-737.5,-2113.295996,59.75825328,64.69815137,59.58,65.87954971,0.011678807,-0.054501101,0,0.045093465
100,0,0.9,2,16.41791045,3210,-8100,714,-113,-102,-1351,-568,-304,1122,1300,-390,-3070,59.76,64.71920822,59.59251781,65.96078585,0.001746721,0.021056858,0.01251781,0.081236135
100,0,0.9,2,17.1641791,2907.141828,-8231.658479,729,-62.75158983,-111.6861979,-997.4952242,-673.456,-838.7768375,875.312,1552.674233,-410.3104228,-3711.250118,59.76,64.82464278,59.63770405,66.09740689,0,0.105434561,0.045186241,0.136621049
100,0,0.9,2,17.91044776,2448,-8308,744,-13,-118,-716,-924.928,-1439.532039,287.056,1791.489852,-461.4512684,-4237.428647,59.76,64.79808467,59.61264401,66.19334715,0,-0.026558111,-0.025060045,0.095940259
100,0,0.9,2,18.65671642,2188.575239,-8291.880602,718.724499,10.79951056,-120.33243,-520.055173,-1225.072,-2066.098822,-415.056,2022.268354,-528.7369026,-4686.682119,59.76,64.76157227,59.58,66.27912776,0,-0.036512408,-0.032644006,0.085780604
100,0,0.9,2,19.40298507,1964.639796,-8248.650093,661.0045535,28.32451131,-121.7759711,-363.8053643,-1476.544,-2678.310403,-1003.312,2250.831237,-597.4816912,-5097.15706,59.76,64.8675293,59.58,66.37282281,0,0.105957031,0,0.093695057
100,0,0.9,2,20.14925373,1670,-8186,598,47,-124,-300,-1582,-3236,-1250,2483,-653,-5507,59.74608398,64.9,59.58,66.46557673,-0.013916016,0.032470703,0,0.092753912
100,0,0.9,2,20.89552239,1069.703601,-7981.550989,517.8516053,75.93143297,-131.2926829,-321.584121,-1470.518519,-3708.0459,-970.5185185,2739.421222,-697.2004116,-5933.956281,59.70067383,64.9,59.58,66.55956278,-0.045410156,0,0,0.09398605
100,0,0.9,2,21.64179104,532,-7812,466,94,-137,-366,-1263.481481,-4148.732015,-451.4814815,2995.456533,-737.8386959,-6332.306485,59.7,65.005,59.58,66.67037891,-0.000673828,0.105,0,0.110816132
100,0,0.9,2,22.3880597,312.7240295,-7912.592593,695.3991639,78.48620524,-131.037037,-433.0397729,-1152,-4646,-172,3189,-769,-6645,59.7,65.11,59.58067383,66.80572366,0,0.105,0.000673828,0.135344749
100,0,0.9,2,23.13432836,157.1397925,-8099.407407,1151.02055,43.86129938,-119.962963,-523.859424,-1355.178763,-5293.970271,-210.4339888,3296.692429,-786.9753945,-6855.542907,59.7,65.11,59.62608398,67.00791952,0,0,0.045410156,0.202195865
100,0,0.9,2,23.88059701,98,-8200,1484,8,-114,-610,-1642,-5964,-302,3399,-806,-7032,59.7,65.13217386,59.64,67.14701104,0,0.022173861,0.013916016,0.139091516
100,0,0.9,2,24.62686567,260,-7968,1596,-24,-114,-680,-1792.192599,-6599.14524,-619.5660112,3569.887504,-845.2636182,-7222.980582,59.7,65.24057913,59.64,67.23032738,0,0.10840527,0,0.083316344
100,0,0.9,2,25.37313433,498.7939002,-7889.134663,1577.575972,-76.34253889,-124.5873016,-746.4922945,-1896,-7062,-884,3746,-900,-7378,59.7,65.32657248,59.6616039,67.27109191,0,0.085993349,0.021603897,0.040764523
100,0,0.9,2,26.11940299,650,-7858,1530,-135,-143,-818,-1952,-7240,-746,3869,-970,-7464,59.7,65.42363478,59.72752948,67.30169537,0,0.097062305,0.065925581,0.03060346
100,0,0.9,2,26.86567164,635.48573,-8182,1265.424028,-190.4862608,-163.9126984,-904.8536057,-2029.046556,-7375.964273,-526.7904088,3983.655995,-1089.837651,-7531.00098,59.7,65.56997563,59.79895171,67.31837005,0,0.146340848,0.071422229,0.016674681
100,0,0.9,2,27.6119403,590,-8506,1030,-233,-177,-1006,-2140,-7550,-306,4072,-1240,-7608,59.68444444,65.64862147,59.84384158,67.30384899,-0.015555556,0.078645841,0.044889869,-0.014521052
100,0,0.9,2,28.35820896,172,-8064,1258,-252,-130,-1129,-2352,-7996,-164,4117,-1404,-7750,59.64205761,65.68858101,59.87710583,67.22797603,-0.042386831,0.039959541,0.033264256,-0.075872968
100,0,0.9,2,29.10447761,219.333983,-7995.259793,1252.817594,-278.2390546,-124.7291667,-1233.68268,-2665.383459,-8531.888118,-42.86380505,4110.65566,-1461.907688,-7950.794464,59.64,65.65,59.90938263,67.13727838,-0.002057613,-0.038581014,0.032276794,-0.090697645
100,0,0.9,2,29.85074627,355.1124105,-7965.287714,1235.635188,-313.2577702,-121.8645833,-1330.203128,-2864,-9136,60,4097,-1485,-8086,59.64,65.61306127,59.94947535,67.08357445,0,-0.036938734,0.040092728,-0.053703933
100,0,0.9,2,30.59701493,570,-7896,1204,-363,-121,-1429,-2692.411924,-9844.933786,157.7105943,4074.729118,-1445.333333,-8103.767755,59.64,65.67330959,60.01494334,67.0533092,0,0.060248321,0.065467984,-0.030265252
100,0,0.9,2,31.34328358,1266,-7432,920,-466,-188,-1535,-2315.490515,-10611.52194,244.5219638,4041.539998,-1371.666667,-8114.439433,59.64,65.69,60.0838207,67.03027382,0,0.016690413,0.068877366,-0.023035371
100,0,0.9,2,32.08955224,1508.614991,-7548,851.4348941,-511.5799378,-227.5853511,-1527,-1940,-11286,282,4004,-1332,-8118,59.64,65.69,60.11964022,67.02009428,0,0,0.035819514,-0.01017954
100,0,0.9,2,32.8358209,1726,-7664,780,-547,-246,-1519,-1561.510611,-11857.49947,243.9642857,3963.448537,-1378.795511,-8047.092985,59.60735599,65.72808467,60.12,67.10161001,-0.032644006,0.038084673,0.000359781,0.08151573
100,0,0.9,2,33.58208955,2176,-7546,428,-588,-218,-1562,-1332,-12276,162,3912,-1471,-7907,59.58,65.75783712,60.12308153,67.17,-0.027355994,0.029752451,0.003081528,0.068389986
100,0,0.9,2,34.32835821,2112,-8250,724,-556,-220,-1490,-1326.025974,-12532.12592,-23.96428571,3844.008673,-1585.646708,-7738.295534,59.58,65.7107929,60.19683993,67.17,0,-0.047044226,0.073758399,0
100,0,0.9,2,35.07462687,2004,-7650,932,-586,-248,-1472,-1324,-12652,-166,3745,-1733,-7505,59.58,65.67769935,60.27936337,67.15144531,0,-0.033093544,0.082523443,-0.018554688
100,0,0.9,2,35.82089552,1991.881356,-7978,829,-606.8927853,-267.0357817,-1457.845752,-1496.283186,-12574,-148.3270224,3565.854164,-1911.575364,-7171.573645,59.58,65.65446179,60.35444654,67.09089844,0,-0.023237564,0.075083166,-0.060546875
100,0,0.9,2,36.56716418,1988,-8306,726,-627,-289,-1444,-1820,-12496,-98,3301,-2120,-6705,59.58,65.63447431,60.40152423,67.10384897,0,-0.019987479,0.047077694,0.012950535
100,0,0.9,2,37.31343284,2235,-8233,798.899654,-658.8385109,-339.5209516,-1427.664944,-2188,-12570,150,2908,-2358,-5976,59.58,65.61945505,60.43819177,67.13702626,0,-0.015019258,0.036667543,0.033177285
100,0,0.9,2,38.05970149,2482,-8160,910,-681,-400,-1410,-2570.950142,-12621.47008,612.9692249,2436.782999,-2300.647059,-5299.869414,59.58,65.61112215,60.47194075,67.16531854,0,-0.008332903,0.03374898,0.028292286
100,0,0.9,2,38.80597015,1803.777778,-8728.814815,993.7339485,-683.2941093,-456.8994,-1386.956467,-3076,-12676,986,1940,-2163,-4498,59.56608398,65.62855469,60.5089465,67.14497858,-0.013916016,0.017432537,0.037005749,-0.020339967
100,0,0.9,2,39.55223881,544.2222222,-9785.185185,1069.200308,-684.2874055,-510.3385889,-1363.033789,-4242.453817,-12792.25987,1077.605365,1456.332724,-1788.35015,-3112.531986,59.52067383,65.68910156,60.54635077,67.02967707,-0.045410156,0.060546875,0.037404269,-0.115301502
100,0,0.9,2,40.29850746,-134,-10354,1102,-687,-534,-1352,-5400,-12874,1130,988,-1253,-1546,59.52,65.64647466,60.58173778,66.92026553,-0.000673828,-0.042626903,0.035387011,-0.109411541
100,0,0.9,2,41.04477612,38,-9614,408,-745,-465,-1452,-5856,-12310,1164,558,-747,-287,59.51932617,65.61,60.61814801,66.87,-0.000673828,-0.036474659,0.036410229,-0.050265533
100,0,0.9,2,41.79104478,413.1766245,-9032.023256,344.0365037,-797.3549039,-458.902027,-1587.951931,-5738,-10808,696,31,-21,1086,59.50101563,65.61,60.66335311,66.87,-0.018310547,0,0.045205096,0
100,0,0.9,2,42.53731343,680,-8734,324,-850,-457,-1748,-5806.356024,-9172.609981,18.22264942,-236.1511733,379.1417858,1870.671059,59.47391602,65.61,60.67,66.85085496,-0.027099609,0,0.006646892,-0.01914504
100,0,0.9,2,43.28358209,573,-8824.586451,442.8482633,-903.0989848,-469,-1925.91853,-5932,-7712,-652,-396,631,2390,59.46,65.61,60.67,66.79,-0.013916016,0,0,-0.06085496
100,0,0.9,2,44.02985075,466,-9044,654,-970,-481,-2121,-6066,-6730,-1100,-470,757,2685,59.46,65.61,60.69625476,66.75135647,0,0,0.026254764,-0.038643526
100,0,0.9,2,44.7761194,584,-9592,858,-1092,-467,-2332,-5536,-8630,-1296,-594,738,3061,59.46,65.61,60.73798878,66.71161448,0,0,0.041734014,-0.039741991
100,0,0.9,2,45.52238806,756.8401502,-9564,818,-1093.556795,-486.0616883,-2567.514936,-636.3088149,-9382.357874,2207.370215,-278.5276148,-274.9225508,3060.202005,59.46,65.61,60.78327512,66.66739236,0,0,0.045286338,-0.044222128
100,0,0.9,2,46.26865672,1024,-9536,778,-1094,-524,-2770,3826,-9692,5720,92,-1271,3058,59.46,65.6328618,60.77783788,66.53700465,0,0.022861795,-0.005437237,-0.130387701
100,0,0.9,2,47.01492537,1612,-9674,968,-1081,-575,-2888,3784,-9115.687644,5734.97147,189.160204,-343.3703704,2416.900139,59.46,65.68920212,60.73382054,66.28813749,0,0.056340322,-0.044017341,-0.248867163
100,0,0.9,3,47.76119403,1224,-10162,820,-1154,-761,-2924,3706,-7498.041954,5743.374624,254.2467687,1379.37037,1229.227847,59.46,65.57359573,60.68813817,66.12552382,0,-0.115606384,-0.045682363,-0.162613669
100,0,0.9,3,48.50746269,196,-10868,782,-1151,-738,-3075,3664,-5006,5746,278,2307,590,59.45505394,65.45126481,60.67,66.03178926,-0.004946061,-0.122330922,-0.018138174,-0.093734566
100,0,0.9,3,49.25373134,320,-10778,668.8865031,-1199.5,-707.5891608,-3286.501949,8944,2174,-7118,-1859,1269,963,59.4084022,65.40521638,60.67,65.99310105,-0.04665174,-0.046048428,0,-0.038688205
100,0,0.9,3,50,444,-10688,582,-1248,-689,-3527,10480,-8220,-11382,-2034,-3,1726,59.4,65.4,60.67,65.96498449,-0.008402198,-0.005216382,0,-0.02811656
100,0,0.9,3,50.74626866,155.352416,-12049,1184,-1219.534392,-789.7806324,-3762.60046,3894,-13754,-7172,-337,-1579,3565,59.4,65.4,60.67,65.91705288,0,0,0,-0.047931614
100,0,0.9,3,51.49253731,-366,-13410,1786,-1168,-906,-4017,-2754,-9372,-544,318,-676,4095,59.4,65.44152832,60.6344043,65.74486909,0,0.04152832,-0.035595703,-0.172183786
100,0,0.9,3,52.23880597,-1029.352416,-12587.70983,1048.827724,-1117.279658,-922.9626108,-4315.182772,-6534,-9300,8814,-198,356,4204,59.4,65.46422959,60.61,65.57747656,0,0.022701275,-0.024404297,-0.167392531
100,0,0.9,3,52.98507463,-1460,-11648,160,-1059,-942,-4632,-4629.680295,-8285.391705,5158.117778,-1201.644965,605.9902118,4127,59.4,65.40980256,60.61,65.49417809,0,-0.05442703,0,-0.083298471
100,0,0.9,3,53.73134328,-272,-11500,-42,-991,-1086,-4944,-2032,-7332,762,-1893,697,4050,59.4,65.4,60.59783788,65.44201888,0,-0.009802565,-0.012162122,-0.052159211
100,0,0.9,3,54.47761194,270,-12184,-68,-937,-1241,-5108,-683.3197049,-7756,-515.1177782,-1546.380674,201.5,4529,59.4,65.4,60.55382054,65.40415334,0,0,-0.044017341,-0.037865539
100,0,0.9,3,55.2238806,1016,-12872,164,-1085,-1199,-5330,-28,-8180,-1052,-1131,-294,5008,59.4,65.35847168,60.50813817,65.3511612,0,-0.04152832,-0.045682363,-0.052992135
100,0,0.9,3,55.97014925,972,-12808,522,-1060,-1162,-5529,-3804,-6854,794,-1040,-20,4785,59.4,65.33,60.49,65.33,0,-0.02847168,-0.018138174,-0.021161203
100,0,0.9,4,56.71641791,3564.518493,-14404,1707.205177,-1204.227679,-1178.752934,-5754.83395,-3842.947075,-7152.331621,1873.506353,-1231,117.3617222,4201.967943,59.4,65.33,60.49,65.33,0,0,0,0
100,0,0.9,4,57.46268657,6380,-16000,2942,-1423,-1224,-5886,-3854,-7586,2374,-1422,178,3547,59.4,65.30785156,60.46785156,65.34413749,0,-0.022148437,-0.022148438,0.014137494
100,0,0.9,4,58.20895522,6734.481507,-15244.19433,3514.061463,-1586.772321,-1504.392352,-5561.308302,-2062,-7810,808,-1370,102,3171,59.4,65.26,60.42,65.4,0,-0.047851563,-0.047851563,0.055862506
100,0,0.9,4,58.95522388,6866,-13624,3776,-1676,-1929,-4895,-2184.43038,-8012.911695,-499.0196627,-1187.579797,62.58510638,2948.411974,59.4,65.26,60.42,65.47736087,0,0,0,0.077360871
100,0,0.9,4,59.70149254,4839.62963,-10537.0641,3603.02406,-1660.543938,-2345.149121,-3654.118574,-2434,-8122,-1260,-932,45,2759,59.4,65.25340525,60.42577041,65.56715679,0,-0.006594749,0.005770405,0.089795923
100,0,0.9,4,60.44776119,1076.37037,-6200.424192,3137.603675,-1619.087876,-2756.130116,-2065.392621,-2794,-7914,-1370,-702,53,2548,59.4,65.19120293,60.48019744,65.66148969,0,-0.06220232,0.05442703,0.094332892
100,0,0.9,4,61.19402985,-950,-2814,2460,-1559,-2942,-1280,-2518,-8536,-910,-432,36,2188,59.4,65.2053125,60.49,65.71984414,0,0.014109569,0.009802565,0.058354457
100,0,0.9,4,61.94029851,2087,-651.4975593,529.4302879,-1385.712489,-2249.736641,-1670,-2745,-8302,-254.5397388,-267.8806067,26.45238095,1947.311394,59.4,65.26,60.49,65.76,0,0.0546875,0,0.040155857
100,0,0.9,4,62.68656716,5124,422,-1686,-1200,-1126,-2060,-2972,-8068,314,-154,20,1732,59.4,65.26,60.45220474,65.81136377,0,0,-0.037795264,0.051363773
100,0,0.9,4,63.43283582,3866,280,-2716,-1134,-296,-1485,-2796,-8212,568,-84,16,1490,59.4,65.26904089,60.41269487,65.79539022,0,0.009040894,-0.03950987,-0.015973554
100,0,0.9,4,64.17910448,2062.146945,-329.1591812,-1790.090047,-740.9190176,407.0823047,-913.9815944,-3062,-8137.139668,1078.79299,-38.65178422,1.555555556,1260.836944,59.4,65.37027096,60.39455029,65.31603892,0,0.101230062,-0.018144572,-0.479351299
100,0,0.9,4,64.92537313,930,-1284,-216,-244,784,-251,-3328,-7974,1434,-8,-10,1036,59.4,65.45777633,60.37970288,64.64670722,0,0.087505371,-0.014847415,-0.6693317
100,0,0.9,4,65.67164179,986,-2342,1120,10,794,729,-2826,-7686,1280,8,64,810,59.4,65.54,60.36,64.27,0,0.082223673,-0.019702878,-0.376707219
100,0,0.9,4,66.41791045,1272,-2890,1290,133,754,1361,-2281.599888,-7754.999442,1331.333333,26.25898892,85.24053989,662.9383637,59.4,65.63497083,60.32673875,64.21404321,0,0.094970827,-0.033261252,-0.055956794
100,0,0.9,4,67.1641791,1344.1354,-2342,869.0267508,234.482696,727.0769231,2110.380037,-1720.599518,-7889.332217,1426.666667,44.01838335,98.45360328,547.3476568,59.4,65.70484172,60.28725898,64.23841845,0,0.069870897,-0.039479767,0.02437524
100,0,0.9,4,67.91044776,1410,-1794,250,351,714,2847,-1196,-7980,1478,52,103,484,59.4,65.74249442,60.24387467,64.65085493,0,0.037652693,-0.043384312,0.412436486
100,0,0.9,4,68.65671642,1678.846123,-1857.647548,-168.1957051,551.924472,725.4074074,3467.713473,-740,-8002,1258,47,69,464,59.4,65.85799465,60.24,64.94987211,0,0.115500235,-0.003874669,0.299017179
100,0,0.9,4,69.40298507,2066.31195,-2023.072875,-529.8756303,815.8976247,746.5925926,4034.80863,-960,-8086,1068,55,70,491,59.4,66.05,60.24,65.18,0,0.192005348,0,0.23012789
100,0,0.9,4,70.14925373,2264,-2252,-684,1074,758,4560,-972.8287143,-8057,1232.628997,55.76086957,73.35526316,525.8122987,59.4,66.19653095,60.24,65.40760113,0,0.146530946,0,0.227601129
100,0,0.9,4,70.89552239,1990.663397,-2742.979841,-457.516129,1313.799482,692.6288566,5050.619912,-986,-8028,1496,56,76,570,59.4,66.30985397,60.24,65.47,0,0.113323025,0,0.062398871
100,0,0.9,4,71.64179104,1682,-3344,-208,1524,581,5487,-1328,-8046,1682,-2,71,634,59.4,66.39437933,60.24,65.47,0,0.084525354,0,0
100,0,0.9,4,72.3880597,1638,-3764,-180,1670,485,5847,-1302.312501,-8100.165529,1613.037037,-47.70576327,64.25582283,683.0043127,59.4,66.48130664,60.26214126,65.3925056,0,0.086927319,0.022141258,-0.077494403
100,0,0.9,4,73.13432836,1738,-4346,-248,1880,363,6371,-1238.402781,-8174.527209,1484.962963,-88.22516691,57.23902253,725.8124376,59.4,66.57,60.3,65.26,0,0.088693356,0.037858742,-0.132505597
100,0,0.9,4,73.88059701,1775.719042,-4809.093992,-324.4480769,2061.260797,269.2017141,6793.073551,-1156,-8212,1416,-130,54,770,59.4,66.68532707,60.3,65.29449999,0,0.115327068,0,0.03449999
100,0,0.9,4,74.62686567,1804.028037,-5212.998217,-406.9538462,2229.716188,182.484857,7173.915002,-1026,-8042,1692,-176,96,819,59.4084022,66.70879707,60.294138,65.36293021,0.008402198,0.023470001,-0.005861999,0.068430223
100,0,0.9,4,75.37313433,1821.823014,-5619.403334,-472.9826923,2384.813486,118.7755714,7511.048952,-1085.234043,-8053,1669,-255.9488246,124.7596154,910.9014478,59.45505394,66.64659475,60.25212701,65.46094286,0.04665174,-0.06220232,-0.042010991,0.098012646
100,0,0.9,4,76.11940299,1828,-6090,-500,2526,94,7802,-1218,-8064,1646,-328,144,1001,59.46,66.64,60.21547734,65.47,0.004946061,-0.006594749,-0.036649667,0.00905714
100,0,0.9,4,76.86567164,1817.902439,-6687.925208,-479,2659.966212,193.7254408,8063.63485,-1474,-7976,1654,-357,153,1046,59.46,66.64,60.18,65.47,0,0,-0.035477343,0
100,0,0.9,4,77.6119403,1792,-7336,-458,2762,382,8246,-1202,-8358,1872,-429,168,1093,59.50101563,66.59214844,60.13386917,65.51785156,0.041015625,-0.047851563,-0.046130827,0.047851563
100,0,0.9,4,78.35820896,1712,-7960,-482,2815,599,8323,-1274,-8234,1694,-467,188,1170,59.52,66.57,60.12,65.54,0.018984375,-0.022148438,-0.013869173,0.022148438
100,0,0.9,4,79.10447761,1394,-9014,-436,2834,1042,8416,-1512,-8048,1598,-527,238,1208,59.52,66.57,60.12,65.54,0,0,0,0
100,0,0.9,4,79.85074627,1204,-9692,-508,2820,1386,8435,-1283,-7965.689062,1377.235382,-561.1309146,227.5,1289.459459,59.5444043,66.57,60.0955957,65.54,0.024404297,0,-0.024404297,0
100,0,0.9,4,80.59701493,1106,-10246,-664,2790,1961,8345,-1054,-7880,1218,-589,217,1384,59.58,66.57,60.06,65.54,0.035595703,0,-0.035595703,0
100,0,0.9,4,81.34328358,1280,-10472,-714,2740,2326,8354,-1390,-7662,1306,-618,224,1454,59.58,66.57,60.06,65.54,0,0,0,0
100,0,0.9,4,82.08955224,1686,-10984,-694,2664,2711,8424,-1468,-7716,1218,-696,178,1502,59.58553711,66.57,60.06,65.54,0.005537109,0,0,0
100,0,0.9,4,82.8358209,1905.724354,-11504.01327,-475.3727567,2528.747632,2681.231895,8401.649553,-1734,-8002,1190,-732,214,1555,59.63446289,66.57,60.06,65.54,0.048925781,0,0,0
100,0,0.9,4,83.58208955,2086.421648,-12041.34513,-35.99800598,2345.623951,2603.035052,8341.482142,-1905.184768,-8000.422149,1109.989527,-763.8104889,246.5369347,1582.098398,59.64,66.55261541,60.05603093,65.53188719,0.005537109,-0.01738459,-0.003969067,-0.008112809
100,0,0.9,4,84.32835821,2208.908118,-12462.00442,395.3757478,2158.688294,2493.070684,8253.82366,-2048.096259,-7995.617543,970.8310391,-796.5618702,279.7190429,1605.801506,59.64,66.49159195,60.03947004,65.50340958,0,-0.061023458,-0.016560893,-0.028477614
100,0,0.9,4,85.07462687,2254,-12632,590,2012,2368,8149,-2170.784,-7987.479603,805.3886892,-827.255328,311.1013641,1625.42627,59.64,66.43307288,60.0154767,65.47610068,0,-0.058519075,-0.023993338,-0.027308902
100,0,0.9,4,85.82089552,2236.38484,-12477.00875,579.8677376,1914.388677,2191.162308,7988.796014,-2281.29752,-7975.901752,646.5266307,-852.8920462,338.2389377,1640.289642,59.649375,66.42,59.98753459,65.47,0.009375,-0.013072878,-0.027942113,-0.006100676
100,0,0.9,4,86.56716418,2190.956268,-12077.29446,550.783615,1838.713378,1931.375871,7734.758819,-2387.686344,-7960.77741,527.1090165,-870.4732089,358.6868032,1649.708569,59.69742188,66.42,59.94743067,65.47,0.048046875,0,-0.040103918,0
100,0,0.9,4,87.31343284,2128.83965,-11530.74636,504.7166294,1775.077611,1613.52033,7396.85771,-2498,-7942,480,-877,370,1653,59.7,66.39080933,59.90625476,65.44080933,0.002578125,-0.029190672,-0.041175907,-0.029190672
100,0,0.9,4,88.05970149,2061.16035,-10935.25364,443.635778,1713.584882,1262.47533,6985.061979,-2630.571904,-7839.635843,534.962963,-855.4814815,373.8179673,1618.763685,59.7,66.35,59.88,65.4,0,-0.040809328,-0.026254764,-0.040809328
100,0,0.9,4,88.80597015,1999.043732,-10388.70554,369.5100579,1644.3387,903.1205125,6509.340922,-2757.615421,-7658.586889,637.037037,-815.5185185,376.1264621,1544.305148,59.7,66.35,59.92101563,65.43759766,0,0,0.041015625,0.037597656
100,0,0.9,4,89.55223881,1953.61516,-9988.991254,284.3084661,1557.44257,560.3355216,5979.663831,-2818,-7526,692,-794,381,1472,59.7,66.3422739,59.93335311,65.49078125,0,-0.007726104,0.012337483,0.053183594
100,0,0.9,4,90.29850746,1936,-9834,190,1443,259,5406,-2822,-7478,652,-798,411,1417,59.7,66.2831842,59.88814801,65.53794922,0,-0.059089691,-0.045205096,0.047167969
100,0,0.9,4,91.04477612,1945.642136,-9925.777778,-23.202476,1247.403082,-49.70542398,4596.404721,-2852.301099,-7579.615922,845.4418999,-805.9950877,543.1299696,1419.459394,59.7,66.19852897,59.8538672,65.54,0,-0.084655235,-0.034280812,0.002050781
100,0,0.9,4,91.79104478,1972.617605,-10096.22222,-316.2679047,973.2603561,-345.9769107,3533.032176,-2901.928327,-7872.342954,1217.550466,-820.1501754,753.8395497,1426.141011,59.7,66.11468082,59.81463464,65.54,0,-0.083848152,-0.039232557,0
100,0,0.9,4,92.53731343,2014,-10188,-464,695,-502,2487,-2928,-8338,1456,-843,901,1436,59.7,66.07831774,59.72784449,65.54,0,-0.036363081,-0.086790149,0
100,0,0.9,4,93.28358209,2182.185814,-10015.56568,-388.2962963,406.7414767,-532.7310203,1504.982115,-2158,-9882,1500,-917,949,1460,59.709375,66.00606678,59.7,65.54,0.009375,-0.072250959,-0.027844494,0
100,0,0.9,4,94.02985075,2506.631369,-9600.020249,-247.7037037,114.156139,-550.3771047,539.4016395,-422,-11136,1656,-985,698,1538,59.75742188,65.84781657,59.7,65.54,0.048046875,-0.15825021,0,0
100,0,0.9,4,94.7761194,2860,-9094,-172,-91,-573,-280,-160,-9804,1300,-1065,610,1703,59.76,65.79473964,59.7,65.54,0.002578125,-0.053076932,0,0
100,0,0.9,4,95.52238806,3285.046594,-8271.741769,-260,-214.7140505,-613.9119016,-922.544163,-680,-9679.170791,1031.52424,-1163.578415,642.3286713,1901.505162,59.76,65.75432022,59.7,65.54,0,-0.040419419,0,0
100,0,0.9,4,96.26865672,3612,-7610,-348,-273,-659,-1444,-1200,-9640,896,-1277,706,2119,59.76,65.67868194,59.7,65.54,0,-0.075638282,0,0
100,0,0.9,4,97.01492537,3688.292639,-7463.163507,-271.9134234,-227.7372735,-691.1852097,-1864.441443,-728,-9830,1322,-1410,789,2349,59.76,65.57572408,59.68748219,65.54,0,-0.102957859,-0.01251781,0
100,0,0.9,4,97.76119403,3768,-7406,-126,-150,-732,-2207,-760,-10322,1378,-1505,826,2592,59.76,65.45535493,59.64229595,65.54,0,-0.120369145,-0.045186241,0
100,0,0.9,4,98.50746269,4104,-7418,50,-82,-834,-2470,-1442,-10934,1348,-1608,908,2822,59.76,65.32748279,59.64,65.54,0,-0.12787214,-0.00229595,0
100,0,0.9,4,99.25373134,3221.641217,-12501.38981,-747,-221.5,-825.9668246,-2419.5,-1302.514379,-11147.88671,1458,-1678.380227,1077.562879,3088.635138,59.76,65.20201595,59.64,65.54,0,-0.125466843,0,0
100,0,0.9,4,100,1488,-17574,-1544,-361,-804,-2369,-934,-11368,1568,-1734,1209,3323,59.76,65.08886269,59.64,65.54,0,-0.113153256,0,0
100,0,0.9,1,0,-878.6825195,-10628,754.5228951,247.5,-601.0331754,-2577,348,-12060,1332,-1778,1225,3463,59.76,64.99394824,59.64,65.54,0,-0.094914453,0,0
100,0,0.9,1,0.775193798,-3388,-3682,3656,856,-412,-2785,75.11724593,-12662.95966,1487.608277,-1837.423077,1220,3800.476991,59.76,64.91233104,59.64,65.54,0,-0.081617194,0,0
100,0,0.9,1,1.550387597,-5029.868595,-6326,4742.477105,567.3023312,-1584.996655,-1433.5,-302,-13418,1760,-1874,1215,4203,59.76,64.85360666,59.64,65.54,0,-0.058724386,0,0
100,0,0.9,1,2.325581395,-6744,-8970,5226,109,-2875,-82,-464,-14982,2012,-1866,1400,4497,59.76,64.83,59.64,65.54069815,0,-0.023606658,0,0.000698148
100,0,0.9,1,3.100775194,-9466,-4610,-2386,-207,-3017,-698,-569.230908,-14835.776,1927.344,-1849.989115,1416.899657,4775.359695,59.76,64.83,59.64,65.56000407,0,0,0,0.019305923
100,0,0.9,1,3.875968992,-8577.42018,-8324,-5934.217762,-330.407887,-1289.5,-1488.618433,-637.6905493,-14487.088,1725.472,-1826.602754,1424.257689,5053.361703,59.76,64.83478615,59.64,65.58999593,0,0.004786154,0,0.029991858
100,0,0.9,1,4.651162791,-6664,-12038,-7466,-381,438,-2342,-708.3347366,-14070.912,1484.528,-1802.121836,1428.165893,5315.183865,59.76,64.87726128,59.64,65.60930185,0,0.042475123,0,0.019305923
100,0,0.9,1,5.426356589,-2460.251723,-11842.6497,-552,114.5,386.5558835,-3362.184275,-820.1192826,-13722.224,1282.656,-1782.827279,1434.716065,5545.004018,59.76,64.93547901,59.64,65.61,0,0.058217738,0,0.000698148
100,0,0.9,1,6.201550388,970,-11500,6362,610,313,-3973,-1012,-13576,1198,-1775,1450,5727,59.76,64.97567681,59.64,65.61306127,0,0.040197791,0,0.003061266
100,0,0.9,1,6.976744186,1436.704967,-11164.76963,6200.888,582.168,270.2447668,-3961.211796,-4381.228518,-14905,1508.366951,-1887.326425,1574.362859,5884.202461,59.76,65.00412323,59.64,65.67330959,0,0.028446428,0,0.060248321
100,0,0.9,1,7.751937984,1834.544145,-10764.03232,5763.584,506.624,230.3923807,-3926.94861,-7628,-16234,2114,-2041,1800,5965,59.76,65.02769729,59.64,65.68531854,0,0.023574057,0,0.012008956
100,0,0.9,1,8.527131783,2168.166792,-10321.42236,5119.136,395.296,193.3922102,-3871.862575,-7550.26087,-15499.81608,3092.633049,-2121.673575,2082.596625,5686.560734,59.76,65.03961302,59.64,65.65702626,0,0.011915728,0,-0.028292286
100,0,0.9,2,9.302325581,2442.222164,-9860.57407,4336.592,260.112,159.1936236,-3797.605829,-7330,-13934,3776,-2161,2424,5075,59.76,65.01654275,59.64,65.62384897,0,-0.023070267,0,-0.033177285
100,0,0.9,2,10.07751938,2661.359517,-9405.121736,3485,113,127.7459895,-3705.830506,-4833.563063,-11408.72008,3529.124859,-2110.183673,2845.840657,3979.180416,59.76,64.96548403,59.64,65.61,0,-0.051058719,0,-0.013848972
100,0,0.9,2,10.85271318,2830.228109,-8978.699663,2633.408,-34.112,98.99867624,-3598.188743,-774,-7926,3138,-1969,3180,2425,59.76,64.91167666,59.64,65.61,0,-0.053807368,0,0
100,0,0.9,2,11.62790698,2953.477197,-8604.942152,1850.864,-169.296,72.90105222,-3476.332676,2752,-3702,2870,-1354,3295,550,59.76,64.9,59.64,65.61,0,-0.011676665,0,0
100,0,0.9,2,12.40310078,3035.756036,-8307.483504,1206.416,-280.624,49.4024859,-3341.914439,-2540,1366,984,-1016,2167,310,59.76,64.9,59.64,65.61,0,0,0,0
100,0,0.9,2,13.17829457,3081.713885,-8109.95802,769.112,-356.168,28.45234568,-3196.586168,-2438.710894,1301.277049,-106.8358564,-687.8924309,842.8391514,94.42411803,59.76,64.87422552,59.64,65.69161001,0,-0.025774476,0,0.081610014
100,0,0.9,2,13.95348837,3096,-8036,608,-384,10,-3042,-2200.22905,1117.738797,-1022.020761,-364.3008901,-613.3651987,-103.677704,59.76,64.81609404,59.64,65.76,0,-0.058131488,0,0.068389986
100,0,0.9,2,14.72868217,3087.230115,-8032.00244,631.8551101,-355.4937889,-5.269823024,-2796.393563,-1922.632682,831.3311465,-1651.695285,-53.05890424,-1789.38695,-378.6906741,59.76,64.71350906,59.64,65.76,0,-0.102584979,0,0
100,0,0.9,2,15.50387597,3061.530346,-8028.682745,691.8853303,-285.6013666,-17.70507835,-2422.897975,-1704,458,-1886,238,-2273,-825,59.76,64.71643312,59.64,65.788619,0,0.002924066,0,0.028618995
100,0,0.9,2,16.27906977,3019.81552,-8026.16183,770.7879955,-197.76205,-28.90542216,-1990.505606,-1570,-440,616,497,-1776,-2468,59.76,64.8234879,59.64,65.90326639,0,0.107054773,0,0.114647399
100,0,0.9,2,17.05426357,2963.000462,-8024.56061,851.2604404,-115.4151555,-40.47051064,-1568.208825,-1577.234746,-910.7303498,604.5078774,660.1353369,-1424.397053,-3398.040927,59.76,64.86890562,59.64,65.95001894,0,0.045417724,0,0.046752548
100,0,0.9,2,17.82945736,2892,-8024,916,-62,-54,-1225,-1602.247269,-1255.31182,565.0157549,791.5986642,-1130.839085,-4095.546057,59.75983229,64.90926068,59.63742188,65.98810944,-0.000167709,0.040355062,-0.002578125,0.0380905
100,0,0.9,2,18.60465116,2670.292705,-8040.546415,954.0851196,-31.3098457,-72.12458331,-959.775153,-1650,-1698,490,961,-845,-4700,59.75450029,64.95617002,59.589375,66.02788055,-0.005332001,0.046909339,-0.048046875,0.039771113
100,0,0.9,2,19.37984496,2277.777558,-8084.203941,987.8776424,-6.93270063,-91.99700539,-724.7730103,-2354,-2454,-526,1248,-554,-5233,59.74332253,65.00584366,59.58,66.10570269,-0.01117776,0.049673637,-0.009375,0.077822132
100,0,0.9,2,20.15503876,1890,-8146,1050,3,-107,-519,-2793.693417,-3249.202162,-985.4530154,1609.489344,-405.8111991,-5703.084836,59.72853992,65.06067399,59.58,66.24195744,-0.014782607,0.054830333,0,0.136254753
100,0,0.9,2,20.93023256,1568,-8276,1322,0,-115,-350,-3002,-3822,-1182,1954,-305,-6110,59.71239338,65.12305342,59.58558308,66.38772559,-0.016146544,0.062379427,0.005583083,0.145768147
100,0,0.9,2,21.70542636,1228,-8198,1358,-22,-126,-292,-2748,-4010,-1048,2193,-234,-6425,59.69677767,65.19628112,59.6043977,66.55067035,-0.015615704,0.073227698,0.018814614,0.162944761
100,0,0.9,2,22.48062016,532,-7942,1210,-39,-143,-283,-2537.807881,-4485.526296,-1007.157106,2377.44323,-237.5794853,-6688.746529,59.67484302,65.30348251,59.62968004,66.72164483,-0.021934658,0.10720139,0.025282347,0.17097448
100,0,0.9,2,23.25581395,192,-8168,1054,-47,-122,-290,-2342.417137,-5254.749848,-975.7317447,2537.941974,-248.4984559,-6937.497759,59.6519713,65.42734866,59.66349682,66.90229501,-0.022871718,0.12386615,0.033816781,0.180650178
100,0,0.9,2,24.03100775,139.5570033,-8238.685379,1065.989751,-54.56317161,-117.5681818,-328.6481478,-2163.922453,-6111.010252,-953.5278298,2686.019102,-267.0276838,-7163.475724,59.64011886,65.53197741,59.69954154,67.0775273,-0.011852434,0.104628757,0.036044719,0.175232291
100,0,0.9,2,24.80620155,122,-8266,1092,-64,-116,-392,-2004.418512,-6847.647104,-940.3492766,2833.197487,-293.4379411,-7358.902459,59.65026432,65.6071957,59.7,67.19505801,0.010145456,0.075218286,0.000458457,0.117530713
100,0,0.9,2,25.58139535,122.5005974,-8241.111111,1148.806247,-78.64664352,-116.5185185,-460.8756331,-1866,-7258,-936,2991,-328,-7516,59.67881472,65.67540606,59.70154076,67.24,0.0285504,0.068210365,0.001540764,0.044941991
100,0,0.9,2,26.35658915,124.0908005,-8178.888889,1247.591996,-98.63093217,-117.8148148,-542.4543386,-1758,-7380,-1068,3163,-447,-7625,59.71427712,65.73557492,59.73841996,67.24,0.0354624,0.060168852,0.0368792,0
100,0,0.9,2,27.13178295,126.9032258,-8098,1365.030747,-123.905639,-119.5,-631.4461221,-1913.037037,-7506.77373,-944.5925926,3334.565792,-656.223527,-7676.461997,59.74513152,65.7864087,59.77853898,67.25855469,0.0308544,0.050833783,0.040119018,0.018554688
100,0,0.9,2,27.90697674,131.0704898,-8017.111111,1477.795998,-154.4235372,-121.1851852,-722.5609897,-2200.962963,-7625.497976,-715.4074074,3492.616229,-927.4371574,-7712.323057,59.75985792,65.82661386,59.81628833,67.31910156,0.0147264,0.04020516,0.037749348,0.060546875
100,0,0.9,2,28.68217054,136.7252091,-7954.888889,1562.561249,-190.1373999,-122.4814815,-810.508947,-2356,-7678,-592,3562,-1180,-7744,59.74087367,65.86043889,59.85313196,67.30088478,-0.018984248,0.033825025,0.036843634,-0.018216781
100,0,0.9,2,29.45736434,144,-7930,1596,-231,-123,-890,-2246,-7436,-680,3544,-1380,-7774,59.69370064,65.89039544,59.88958303,67.24958582,-0.047173029,0.029956552,0.036451068,-0.051298966
100,0,0.9,2,30.23255814,343.5281318,-7943.707602,1390.666667,-311.4835081,-123,-965.3134873,-2420,-8238,-520,3696,-1563,-7893,59.64967598,65.90817595,59.92566643,67.1903885,-0.044024662,0.017780516,0.0360834,-0.059197314
100,0,0.9,2,31.00775194,742.9702421,-7984.081871,1009.333333,-415.4639763,-123,-1036.516351,-2562,-8554,-230,3722,-1604,-8016,59.63087475,65.90301277,59.9612945,67.13549998,-0.018801235,-0.00516318,0.035628069,-0.054888522
100,0,0.9,2,31.78294574,1068,-8050,804,-467,-123,-1092,-2550.824306,-8962.964252,-86.21289299,3713.962963,-1578.525419,-8140.589784,59.61682039,65.86565573,59.99647319,67.09054139,-0.014054357,-0.037357041,0.03517869,-0.044958587
100,0,0.9,2,32.55813953,1224,-8298,1056,-438,-138,-1127,-2517.870835,-9433.051148,16.67133128,3699.037037,-1521.27306,-8257.983959,59.6045191,65.80701144,60.0396784,67.12336195,-0.012301289,-0.058644294,0.043205215,0.032820562
100,0,0.9,2,33.33333333,1688,-8008,1148,-520,-158,-1155,-2464,-9914,56,3691,-1461,-8325,59.59432865,65.7396018,60.06,67.17892774,-0.010190452,-0.067409634,0.020321596,0.055565789
100,0,0.9,2,34.10852713,1424,-8020,1066,-537.4930191,-159.6524839,-1169.467767,-2260,-10396,44,3695,-1405,-8343,59.5866068,65.67594874,60.06,67.22196206,-0.007721847,-0.06365306,0,0.043034314
100,0,0.9,2,34.88372093,1160,-8032,984,-551,-161,-1184,-1986.588492,-10838.0591,66.81481481,3659.988273,-1336.876758,-8295.992274,59.58171133,65.62857417,60.09142905,67.27625,-0.004895472,-0.047374572,0.031429046,0.054287942
100,0,0.9,2,35.65891473,1177.1875,-8004.1875,1021.1875,-576.9577373,-167.1884892,-1212.896954,-1702.849802,-11269.0107,109.1851852,3568.30988,-1268.882824,-8181.206769,59.58,65.61,60.18,67.32,-0.001711328,-0.018574171,0.088570954,0.04375
100,0,0.9,2,36.43410853,1215,-7943,1103,-610.8997578,-179.443526,-1253.624734,-1572,-11754,132,3440,-1238,-8038,59.58,65.61,60.2148391,67.28303011,0,0,0.034839096,-0.036969889
100,0,0.9,2,37.20930233,1252.8125,-7881.8125,1184.8125,-647.6418995,-195.7267998,-1297.040148,-1648,-12366,78,3180,-1242,-7832,59.58,65.61,60.24770981,67.2323983,0,0,0.032870711,-0.050631807
100,0,0.9,2,37.98449612,1270,-7854,1222,-682,-214,-1334,-1556,-13213.27313,109,2872.232355,-1391.58851,-7406.906691,59.58,65.61,60.29036056,67.20020623,0,0,0.042650755,-0.032192071
100,0,0.9,2,38.75968992,1220.222222,-7981.555556,1130.740741,-714.049897,-243.6279114,-1359.331958,-1464,-14000,140,2533,-1669,-6756,59.56101563,65.61,60.33813447,67.17435398,-0.018984375,0,0.047773913,-0.025852253
100,0,0.9,2,39.53488372,1127.777778,-8218.444444,961.2592593,-745.3633323,-280.418894,-1381.763245,-1848.521543,-14576.93091,2,2194.814202,-2073.522334,-5813.487943,59.52,65.61,60.38869558,67.15026764,-0.041015625,0,0.050561101,-0.024086343
100,0,0.9,2,40.31007752,1078,-8346,870,-773,-302,-1413,-2628,-14870,-136,1781,-2352,-4432,59.52,65.61,60.4397079,67.1233733,0,0,0.05101232,-0.026894339
100,0,0.9,2,41.08527132,1142.814815,-8234.057874,883.4814815,-795.3636364,-307.7489712,-1471.235374,-3734,-13590,404,1105,-2358,-2091,59.51937792,65.61,60.48883547,67.08909706,-0.00062208,0,0.04912757,-0.034276242
100,0,0.9,2,41.86046512,1263.185185,-8020.33797,908.5185185,-815.1818182,-311.5967078,-1555.998614,-4982,-12832,398,498,-2105,-590,59.50994112,65.61,60.53374232,67.042865,-0.0094368,0,0.044906851,-0.046232052
100,0,0.9,2,42.63565891,1328,-7888,922,-836,-313,-1651,-5272,-12124,784,-317,-1333,882,59.49359232,65.61,60.5769959,66.954169,-0.0163488,0,0.043253583,-0.088696006
100,0,0.9,2,43.41085271,1319,-7862.351559,701,-857.8292254,-311.5,-1765.616459,-5000.976,-12160.608,676.048,-462.0563461,-970.8149701,1553.445802,59.47609152,65.61,60.60961866,66.80175062,-0.0175008,0,0.032622756,-0.152418377
100,0,0.9,2,44.18604651,1310,-7852,480,-884,-310,-1879,-4354.688,-12247.904,418.624,-567.1383893,-729.2285224,2043.78867,59.46319872,65.61,60.61,66.70273062,-0.0128928,0,0.000381342,-0.099020005
100,0,0.9,2,44.96124031,1710,-7996,500,-925,-342,-1959,-3583.312,-12352.096,111.376,-636.6922595,-534.1345896,2425.308638,59.46,65.6061436,60.61553711,66.61310428,-0.00319872,-0.003856404,0.005537109,-0.089626332
100,0,0.9,2,45.73643411,1698,-8098,982,-965,-419,-2005,-2937.024,-12439.392,-146.048,-675.1640865,-311.4271046,2770.285737,59.46,65.55774204,60.66446289,66.5234519,0,-0.048401556,0.048925781,-0.089652387
100,0,0.9,2,46.51162791,2085,-9285.846486,1611.094886,-937.5,-719.7613738,-2050.844971,-2666,-12476,-254,-687,13,3151,59.46,65.4745389,60.67,66.36626879,0,-0.083203139,0.005537109,-0.157183111
100,0,0.9,2,47.28682171,2472,-10388,1994,-910,-964,-2107,-2812,-7578,2372,-275,592,3556,59.46,65.4,60.67,66.2,0,-0.0745389,0,-0.166268785
100,0,0.9,2,48.0620155,2266.914684,-10302.304,1783.296,-928.7588571,-946.736,-2194.230451,-1593.173536,-8436,4178.253265,-129.18443,1119.013167,3178.339296,59.46,65.4,60.67,66.15152129,0,0,0,-0.048478714
100,0,0.9,2,48.8372093,1772.024051,-10097.952,1280.848,-977.8765714,-905.568,-2311.832407,540,-9294,5062,-71,1556,2575,59.45505394,65.40577041,60.67,66.10009868,-0.004946061,0.005770405,0,-0.051422604
100,0,0.9,3,49.6124031,1167.876077,-9854.048,681.152,-1046.614857,-856.432,-2449.819137,2695.105596,-6204,2865.567656,-401.1209439,1920.352999,2044.160704,59.4084022,65.46019744,60.67,66.01581776,-0.04665174,0.05442703,0,-0.084280921
100,0,0.9,3,50.3875969,635.018735,-9649.696,178.704,-1124.235429,-815.264,-2598.203911,4564,-3114,-1212,-978,2109,1739,59.4,65.47,60.67,65.92470398,-0.008402198,0.009802565,0,-0.091113781
100,0,0.9,3,51.1627907,354,-9564,-32,-1200,-798,-2747,5530,-3954,-5688,-1509,980,1848,59.4,65.47,60.67,65.83,0,0,0,-0.09470398
100,0,0.9,3,51.9379845,296.3831177,-11315,605,-1303.814286,-813.1135135,-2891.863111,4966.698714,-7672.664785,-4992.08268,-868,-372.2034155,2479.096021,59.4,65.47,60.67,65.74184496,0,0,0,-0.088155039
100,0,0.9,3,52.71317829,234,-13066,1242,-1372,-846,-3072,3594,-10760,-3440,-227,-1172,3268,59.4,65.47,60.66871863,65.65418049,0,0,-0.001281373,-0.087664475
100,0,0.9,3,53.48837209,-149.1764873,-12761,1149,-1363.607143,-899.0776941,-3361.547296,-1750.698714,-9617,581.0826797,-251.2566845,-588.5,3765.088751,59.4,65.47,60.65614445,65.55920429,0,0,-0.012574175,-0.094976193
100,0,0.9,3,54.26356589,-572,-12456,1056,-1342,-983,-3718,-6286,-8474,3746,-308,-5,4017,59.4,65.47,60.63469273,65.46918252,0,0,-0.021451721,-0.090021771
100,0,0.9,3,55.03875969,-680.8358238,-13016.51688,1377,-1224.392857,-1170.513921,-4097.226381,-4316.666667,-8609.333333,2722.962963,-500.2103387,-21.17930966,3995.481481,59.4,65.47,60.61,65.4,0,0,-0.02469273,-0.069182522
100,0,0.9,3,55.81395349,-810,-13910,1698,-1120,-1318,-4482,-659.3333333,-8860.666667,823.037037,-789.1051693,-64.46973042,3955.518519,59.4,65.40624955,60.57996578,65.34676597,0,-0.063750452,-0.030034225,-0.053234033
100,0,0.9,3,56.58914729,-1580,-14534,876,-1141,-1328,-4828,1310,-8996,-200,-938,-127,3934,59.4,65.27955561,60.5282178,65.33,0,-0.126693937,-0.051747976,-0.016765967
100,0,0.9,3,57.36434109,-1338.680663,-13038,759.3741209,-1160.496376,-1361.506098,-5078.054756,280,-6714,214,-781,-268,4118,59.4,65.18675432,60.42973896,65.33,0,-0.092801291,-0.098478836,0
100,0,0.9,3,58.13953488,-788,-11542,690,-1188,-1408,-5265,-813.1704048,-6947.10343,556.5773666,-818.5925926,-167.1481481,3856.109165,59.4,65.18,60.42,65.24881539,0,-0.00675432,-0.009738963,-0.081184612
100,0,0.9,3,58.91472868,336.4547357,-11891.167,582.7949438,-1290.092295,-1458.189555,-5375.68949,-1845.696314,-7452.651305,849.7331278,-888.4074074,20.14814815,3347.107219,59.4,65.18,60.42,65.11,0,0,0,-0.138815388
100,0,0.9,3,59.68992248,2040,-12648,520,-1388,-1492,-5490,-2304,-7940,974,-926,121,3006,59.4,65.18,60.42,65.11,0,0,0,0
100,0,0.9,4,60.46511628,4276,-13962,1328,-1407,-1497,-5715,-1164,-8304,584,-825,92,2926,59.4,65.17354004,60.42,65.11415822,0,-0.006459961,0,0.004158221
100,0,0.9,4,61.24031008,6986,-16124,2186,-1636,-1466,-5685,-1068,-7894,336,-706,58,2871,59.4,65.11645996,60.42,65.17367747,0,-0.057080078,0,0.05951925
100,0,0.9,4,62.01550388,7698,-14918,2632,-1750,-1650,-5222,-1628,-8246,238,-663,21,2733,59.4,65.11550339,60.42,65.26423261,0,-0.000956572,0,0.090555136
100,0,0.9,4,62.79069767,5974.962963,-12445.80757,2601.282307,-1726.868292,-2064.944295,-4376.955833,-2326,-8086,172,-530,13,2494,59.4,65.1371195,60.42069815,65.3349187,0,0.021616109,0.000698148,0.070686094
100,0,0.9,4,63.56589147,2775.037037,-9079.572307,2513.231281,-1667.514361,-2587.138814,-3344.191034,-2896,-8190,16,-444,33,2335,59.4,65.16494045,60.46999593,65.37653325,0,0.027820954,0.049297781,0.041614547
100,0,0.9,4,64.34108527,1052,-6098,2374,-1587,-2844,-2661,-2844,-7960,-116,-316,41,2022,59.4,65.18868929,60.49,65.41943415,0,0.023748836,0.020004071,0.042900906
100,0,0.9,4,65.11627907,1752,-3579.434575,1122.027978,-1445.266588,-2504.397888,-2421.270402,-2360,-8102,76,-219,47,1821,59.4,65.20956178,60.49,65.46602483,0,0.020872493,0,0.046590678
100,0,0.9,4,65.89147287,3052,-1319.317301,-1032.541567,-1222.915829,-1728.351332,-2265.07815,-2141.080623,-8108.207644,238.2091138,-180.0606536,49.32511574,1681.648917,59.4,65.23212229,60.49,65.45136377,0,0.022560511,0,-0.01466106
100,0,0.9,4,66.66666667,3752,-172,-2176,-966,-880,-2049,-1939.810947,-8112.674825,404.6968824,-144.6649922,51.06355219,1545.251423,59.4,65.26,60.49,65.4,0,0.027877707,0,-0.051363773
100,0,0.9,4,67.44186047,1861,80.53334377,-1742.941003,-658.371828,64.55376217,-1651.706748,-1756.455301,-8115.730537,571.9592121,-112.7829656,52.33721591,1413.554229,59.4,65.30206194,60.45161358,65.36444547,0,0.042061942,-0.038386418,-0.035554528
100,0,0.9,4,68.21705426,-30,180,-814,-303,905,-1093,-1591.278013,-8117.703776,736.4920094,-84.38452338,53.26801347,1288.304044,59.4,65.34605068,60.40418858,65.24834795,0,0.043988743,-0.047425005,-0.116097519
100,0,0.9,4,68.99224806,360,-1874,748,72,1331,-290,-1444.54341,-8118.923535,894.7911809,-59.43961548,53.97785143,1171.247577,59.4,65.38829098,60.36710536,64.8337161,0,0.042240296,-0.037083213,-0.414631852
100,0,0.9,4,69.76744186,236,-2294,1288,251,1298,396,-1316.515823,-8119.718811,1043.352633,-37.9181916,54.58863636,1064.131537,59.4,65.48942634,60.32625476,64.44435237,0,0.101135357,-0.0408506,-0.389363726
100,0,0.9,4,70.54263566,412.5517869,-2209.481481,948.9160739,431.7430454,1188.22877,1176.623462,-1207.459579,-8120.418597,1178.672272,-19.79020153,55.22227483,968.7026343,59.4,65.61,60.3,64.2,0,0.120573662,-0.026254764,-0.244352375
100,0,0.9,4,71.31782946,769.9924626,-2052.518519,260.9432589,614.9846296,1033.503274,1990.903234,-1117.639006,-8121.351888,1297.246005,-5.025595025,56.0006734,886.7075776,59.4,65.65762416,60.3,64.2,0,0.047624155,0,0
100,0,0.9,4,72.09302326,1050,-1968,-282,807,955,2702,-1047.318434,-8122.847679,1395.569737,6.405678149,57.04573864,819.8930764,59.4,65.7301054,60.29756908,64.21778302,0,0.072481245,-0.002430921,0.017783021
100,0,0.9,4,72.86821705,1203.489019,-2007.876877,-585.9062218,1017.125596,963.037037,3256.018398,-996.7621895,-8125.234965,1470.139376,14.53366822,58.4793771,770.0058402,59.4,65.87379402,60.27676601,64.38182354,0,0.143688616,-0.020803072,0.164040514
100,0,0.9,4,73.64341085,1325.966732,-2113.087087,-829.9531109,1237.366295,977.962963,3741.442023,-966.2346021,-8128.84274,1517.450829,19.38842543,60.42349537,738.7925783,59.4,65.97159993,60.25095417,64.62848834,0,0.097805918,-0.025811837,0.246664801
100,0,0.9,4,74.41860465,1376,-2262,-930,1448,986,4235,-956,-8134,1534,21,63,728,59.4,66.06111097,60.24067383,64.84911383,0,0.089511036,-0.010280342,0.220625492
100,0,0.9,4,75.19379845,1342.296296,-2626.763985,-823.1851852,1652.063987,928.3906597,4790.189562,-1000.27856,-8166.759259,1499.777778,2.197715128,75.71111111,761.8185051,59.4,66.19984383,60.28608398,65.06457662,0,0.138732857,0.045410156,0.215462795
100,0,0.9,4,75.96899225,1279.703704,-3211.825267,-624.8148148,1847.734968,794.5590972,5353.911439,-1109.890454,-8221.268519,1436.222222,-43.27123641,96.24444444,836.9703436,59.4,66.33466884,60.29648891,65.09771117,0,0.134825014,0.010404923,0.033134551
100,0,0.9,4,76.74418605,1246,-3744,-518,2008,643,5843,-1250,-8250,1402,-99,107,914,59.4,66.45705297,60.27526969,65.02344392,0,0.122384133,-0.021219214,-0.07426725
100,0,0.9,4,77.51937984,1286,-4116,-642,2119,474,6212,-1528.93662,-7906,1430,-181.7642338,102,996.8250211,59.4,66.57445171,60.25038673,64.93635355,0,0.117398732,-0.024882964,-0.087090372
100,0,0.9,4,78.29457364,1394.165224,-4542.10682,-838.6079632,2264.99378,271.8133651,6631.035432,-1736,-7562,1458,-266,97,1049,59.40039703,66.64,60.24059841,64.9,0.00039703,0.065548294,-0.009788317,-0.036353552
100,0,0.9,4,79.06976744,1550,-5026,-966,2438,55,7075,-1472,-8342,1454,-313,112,1051,59.43371591,66.64,60.28285365,64.9,0.033318879,0,0.042255241,0
100,0,0.9,4,79.84496124,1726,-5614,-950,2644,-163,7530,-1080,-7830,1458,-367,166,1125,59.47567805,66.64,60.28302208,64.95391975,0.041962144,0,0.000168423,0.053919747
100,0,0.9,4,80.62015504,1600.380332,-6181.756923,-748.2435034,2753.080195,-280.1453354,7900.987945,-1172,-7746,1524,-364,137,1176,59.51437665,66.64,60.18877424,65.23977365,0.038698593,0,-0.094247837,0.285853903
100,0,0.9,4,81.39534884,1372,-6768,-560,2829,-333,8222,-1384.872617,-7787.25,1419.9375,-384.5996974,137.285,1227.30453,59.54013682,66.6189945,60.16453406,65.28052704,0.02576017,-0.021005496,-0.024240178,0.040753389
100,0,0.9,4,82.17054264,1137.55787,-7477.094419,-701.2386707,2888.980984,-229.2077805,8516.976564,-1695.608993,-7878,1191,-432.0158598,138.26,1280.104027,59.56264273,66.55838999,60.1525181,65.29659486,0.022505917,-0.060604519,-0.012015957,0.016067825
100,0,0.9,4,82.94573643,882,-8108,-934,2934,-33,8749,-1976.040872,-7968.75,962.0625,-484.6740922,140.105,1321.35151,59.57724116,66.50236515,60.1445735,65.30647278,0.014598427,-0.056024832,-0.007944605,0.009877912
100,0,0.9,4,83.72093023,632,-8480,-1114,2964,194,8885,-2098,-8010,858,-521,143,1338,59.58,66.49,60.13635233,65.31494655,0.00275884,-0.012365154,-0.008221169,0.008473777
100,0,0.9,4,84.49612403,489.9174676,-9098.038288,-1141.62231,2951.725986,638.1045185,9047.02217,-1796,-7834,1060,-537,172,1326,59.58,66.49,60.12350668,65.32680197,0,0,-0.012845647,0.011855418
100,0,0.9,4,85.27131783,383.7365116,-9884.803787,-1157.144488,2919.674195,1226.510796,9207.888536,-1836.658892,-7802.72135,1053.663791,-560.7436469,193.9004725,1328.048315,59.61,66.49,60.09454625,65.34769501,0.03,0,-0.028960431,0.020893044
100,0,0.9,4,86.04651163,342,-10636,-1162,2875,1730,9284,-1941.516035,-7777.940651,1036.539167,-590.8774464,213.2491521,1333.807309,59.64,66.49274348,60.04734213,65.3748096,0.03,0.002743484,-0.047204125,0.027114586
100,0,0.9,4,86.82170543,433.7117638,-11265.9181,-991.0970388,2789.109209,2134.697091,9288.941176,-2084.892128,-7759.043433,1011.452134,-625.590006,230.739877,1342.698055,59.64,66.54925926,60.00827997,65.39570067,0,0.056515775,-0.039062161,0.020891072
100,0,0.9,4,87.59689922,653.4235275,-11865.18326,-607.3051887,2646.063043,2488.311256,9291.970588,-2241.107872,-7745.415228,981.2286951,-663.0699336,247.0664859,1354.141624,59.64,66.57,60,65.39789281,0,0.020740741,-0.008279966,0.002192133
100,0,0.9,4,88.37209302,918,-12494,-204,2472,2654,9293,-2384.483965,-7736.441566,948.6948567,-701.5058366,262.922817,1367.55909,59.64,66.57,60,65.37874356,0,0,0,-0.019149242
100,0,0.9,4,89.14728682,1266.46185,-13201.08425,262.1508353,2236.560646,2675.027967,9219.20302,-2489.341108,-7731.50798,916.6766233,-739.0863229,279.0027089,1382.371524,59.64886885,66.55817486,60,65.35092321,0.008868854,-0.011825138,0,-0.027820352
100,0,0.9,4,89.92248062,1666,-13910,554,1953,2683,9050,-2530,-7730,888,-774,296,1398,59.67407964,66.52456048,59.99991753,65.32827419,0.025210786,-0.033614381,-8.25E-05,-0.022649018
100,0,0.9,4,90.69767442,2018,-14548,550,1660,2441,8699,-2429.407407,-7778.097274,855.1568222,-804.3586664,310.7809323,1417.355799,59.69628517,66.49495311,59.99087261,65.30987824,0.022205526,-0.029607368,-0.009044925,-0.018395951
100,0,0.9,4,91.47286822,2343.257275,-14310.90498,451.5492461,1492.244676,2153.743096,8208.220743,-2242.592593,-7897.305659,821.4673,-834.2885717,325.5481289,1444.149252,59.7,66.49,59.96983609,65.29124347,0.003714834,-0.004953112,-0.02103652,-0.018634769
100,0,0.9,4,92.24806202,2728,-13760,308,1415,1880,7661,-2142,-8050,806,-871,349,1479,59.7,66.49,59.94102843,65.27498428,0,0,-0.028807653,-0.01625919
100,0,0.9,4,93.02325581,3370,-12566,224,1422,1678,7135,-2194.1875,-8210.85595,919.2719618,-924.1698603,467.8276941,1537.184213,59.73,66.42,59.90867011,65.26371507,0.03,-0.07,-0.032358326,-0.011269216
100,0,0.9,4,93.79844961,3740,-11110,508,1333,1326,5811,-2309,-8430.553601,1197.558565,-991.9473428,689.3468392,1620.738624,59.76,66.35,59.87686613,65.26053748,0.03,-0.07,-0.031803974,-0.003177591
100,0,0.9,4,94.57364341,3899.877901,-10856.39983,464.4780774,1048.643529,1022.133618,4037.409047,-2423.8125,-8785.474451,1548.565886,-1064.251154,903.1925647,1710.423723,59.76,66.35,59.83924519,65.30373554,0,0,-0.037620946,0.04319806
100,0,0.9,4,95.34883721,4023.669246,-10687.41096,344.2748731,569.4606178,742.7833648,1965.715087,-2476,-9352,1880,-1131,999,1787,59.76,66.32814529,59.80099936,65.35517671,0,-0.021854705,-0.038245831,0.051441172
100,0,0.9,4,96.12403101,4103.625967,-10593.21661,162.9342323,68.29739804,468.0414292,82.41358327,-1518,-12290,2188,-1189,865,1844,59.76,66.2198996,59.76540985,65.39820244,0,-0.108245692,-0.035589503,0.043025733
100,0,0.9,4,96.89922481,4132,-10564,-64,-282,178,-1126,562,-11088,2192,-1306,786,1983,59.76,66.12852386,59.73972245,65.4,0,-0.09137574,-0.025687408,0.001797558
100,0,0.9,4,97.6744186,3971.259259,-10856.81627,-565.7796852,-466.4425085,-207.7009391,-1684.272869,38,-9688,1240,-1424,709,2221,59.76,66.02676799,59.71667931,65.4,0,-0.101755871,-0.023043132,0
