locomotion_mode,terrain_info,walk_speed_info,gait_phase,gait_percentage,left_accel_x,left_accel_y,left_accel_z,left_gyro_x,left_gyro_y,left_gyro_z,right_accel_x,right_accel_y,right_accel_z,right_gyro_x,right_gyro_y,right_gyro_z,left_hip_angle,left_knee_angle,right_hip_angle,right_knee_angle,left_hip_angle_vel,left_knee_angle_vel,right_hip_angle_vel,right_knee_angle_vel
100,0,1.1,1,11.42857143,762,-8360,512,163,-86,-1038,-3894.348657,-10557,403.6838791,-1824.975524,1523,2899,59.76,64.69210604,59.76,65.91,0,-0.047681059,0,0
100,0,1.1,2,12.14285714,668.3200673,-8412.258842,656.0625,181.8850035,-83.47596154,-960.6224139,-5182,-10586,18,-1610,1395,3110,59.76,64.725,59.76,65.91,0,0.032893963,0,0
100,0,1.1,2,12.85714286,606.5067265,-8454.118971,973,221.3144476,-76.76923077,-900.026941,-5554,-10130,-12,-1369,1535,2975,59.75770405,64.76,59.76,65.91267861,-0.00229595,0.035,0,0.002678608
100,0,1.1,2,13.57142857,572.4400224,-8481.919614,1289.9375,260.3366678,-67.17788462,-857.4179976,-5382,-9372,354,-1227,1560,2791,59.71251781,64.76,59.76,65.96539589,-0.045186241,0,0,0.052717281
100,0,1.1,2,14.28571429,562,-8492,1434,278,-56,-834,-4424,-7854,830,-1021,1666,2495,59.7,64.76,59.76,65.96539589,-0.01251781,0,0,1.42E-14
100,0,1.1,2,15,948,-8266,1320,220,-38,-825,-3652,-6978,786,-832,1672,2086,59.7,64.76,59.76,65.91267861,0,0,0,-0.052717281
100,0,1.1,2,15.71428571,941.1334221,-8241.85994,1230.672846,178.6735433,-41.40740741,-794.1513478,-1536,-4210,236,-535,1230,1285,59.7,64.72808467,59.76,65.91814966,0,-0.031915327,0,0.005471051
100,0,1.1,2,16.42857143,921.0491729,-8223.918501,1155.547376,140.1975399,-49.92592593,-737.1670585,-964.0312679,-2668.39772,-603.6064261,-407.1958019,559.2059209,1270.068136,59.69992605,64.69008627,59.76,65.94786327,-7.39E-05,-0.0379984,0,0.029713609
100,0,1.1,2,17.14285714,888.5204792,-8211.368735,1086.170475,106.0320867,-61,-668.2034556,-615.4881207,-1523.976638,-1520.914324,-322.041433,-201.2962417,1265.070945,59.69228638,64.69899923,59.76,65.9934062,-0.007639674,0.008912953,0,0.045542932
100,0,1.1,2,17.85714286,844.320568,-8203.403695,1014.089023,77.63728096,-72.07407407,-601.4168626,-470,-1076,-1952,-191,-698,1252,59.67638484,64.71755102,59.76,66.04849257,-0.015901538,0.018551794,0,0.055086368
100,0,1.1,2,18.57142857,789.222666,-8199.216432,930.8499039,56.47321968,-80.59259259,-550.9636029,-428.3123016,-1880.113558,-862.1388889,176.6804689,-920.242265,763.2380599,59.65834134,64.73860177,59.76,66.10683648,-0.018043502,0.021050753,0,0.058343916
100,0,1.1,2,19.28571429,724,-8198,828,44,-84,-531,-412,-3008,442,582,-1019,-9,59.64427577,64.7550116,59.76,66.16215206,-0.014065568,0.016409829,0,0.055315576
100,0,1.1,2,20,519.4931736,-8326,636.1317495,38.7495611,-81.93269231,-548.619713,-804.7,-3656.886442,810.1388889,786.8839717,-946.3558938,-575.5224024,59.64,64.75820244,59.76,66.20812496,-0.004275769,0.00319084,0,0.045972901
100,0,1.1,2,20.71428571,350,-8454,502,34,-79,-568,-1336,-3982,964,971,-794,-1118,59.64,64.71517671,59.76,66.24620522,0,-0.043025733,0,0.03808026
100,0,1.1,2,21.42857143,369.8337433,-8423.235787,570.75,25.63666123,-77.24519231,-570.4477298,-1603.3,-3710,366.821608,1201.730853,-544.8685471,-1639.611042,59.64,64.66373554,59.76,66.30224514,0,-0.051441172,0,0.056039914
100,0,1.1,2,22.14285714,417.3899821,-8352.962099,722,14.58710753,-75.63461538,-571.5894646,-1732,-3438,-400,1463,-247,-2178,59.64,64.62053748,59.76,66.38952991,0,-0.04319806,0,0.087284771
100,0,1.1,2,22.85714286,474.7512299,-8276.207362,873.25,1.994000069,-74.45673077,-572.6864672,-1596,-3512,-642,1774,-2,-2796,59.64,64.65808467,59.76,66.49120445,0,0.037547196,0,0.101674547
100,0,1.1,2,23.57142857,524,-8226,942,-11,-74,-575,-1336,-3800,-678,1942,131,-3152,59.64,64.69,59.76180517,66.58867274,0,0.031915327,0.001805175,0.097468291
100,0,1.1,2,24.28571429,552.8020091,-8208.996653,914,-25.06985083,-74.77777778,-586.57155,-1099.536284,-4288.681366,-751.1572194,2104.319899,231.3415338,-3483.240284,59.64,64.69,59.80267465,66.68362205,0,0,0.040869479,0.094949305
100,0,1.1,2,25,579.4573276,-8197.720549,862,-40.37510655,-76.22222222,-608.803843,-896,-4920,-886,2275,282,-3815,59.62444444,64.69,59.84497819,66.78244547,-0.015555556,0,0.042303535,0.098823421
100,0,1.1,2,25.71428571,632,-8174,834,-55,-77,-633,-746,-5672,-1264,2476,156,-4173,59.58205761,64.69,59.87864036,66.8666009,-0.042386831,0,0.033662171,0.084155428
100,0,1.1,2,26.42857143,958,-8018,848,-68,-61,-658,-639,-6120.957924,-1476.642108,2683.387055,-46.65937251,-4395.107209,59.58,64.6949884,59.88,66.87,-0.002057613,0.004988398,0.00135964,0.003399101
100,0,1.1,2,27.14285714,725,-8094,796,-74.64859438,-73,-633.5,-586,-6494,-1574,2854,-289,-4583,59.58,64.71139823,59.88178243,66.87,0,0.016409829,0.001782427,0
100,0,1.1,2,27.85714286,492,-8170,744,-81,-85,-609,-801.003876,-6877.215461,-1520.420368,2970.733871,-539.7638423,-4786.209476,59.58,64.73244898,59.92244068,66.87,0,0.021050753,0.04065825,0
100,0,1.1,2,28.57142857,545.2931128,-8165.802626,745.630622,-92.54319665,-81.464,-616.28,-1028,-7264,-1416,3034,-789,-4975,59.58,64.75100077,59.96628409,66.87,0,0.018551794,0.043843415,0
100,0,1.1,2,29.28571429,675.1593383,-8153.967879,750.491866,-108.302843,-73.032,-633.64,-1042,-7686,-1284,3043,-1009,-5131,59.58,64.75991373,59.99960297,66.87,0,0.008912953,0.033318879,0
100,0,1.1,2,30,836.5790075,-8135.631818,758.537799,-125.1908909,-62.968,-654.36,-845,-8236.47609,-1237.899275,3046.816176,-1304.163946,-5226.268862,59.5444043,64.76,60,66.87,-0.035595703,8.63E-05,0.00039703,0
100,0,1.1,2,30.71428571,984.5324511,-8111.930505,769.722488,-140.1192926,-54.536,-671.72,-648,-8740,-1196,3049,-1646,-5303,59.52,64.76,60.00444444,66.86407407,-0.024404297,0,0.004444444,-0.005925926
100,0,1.1,2,31.42857143,1074,-8084,784,-150,-51,-679,-682.7368421,-9086.607998,-1109.925592,3050.375,-2026.472384,-5375.893585,59.52,64.76,60.04868313,66.80508916,0,0,0.044238683,-0.058984911
100,0,1.1,2,32.14285714,1116.304511,-8011.583397,846.9521531,-154.3511085,-53.86363636,-653,-758,-9308,-992,3051,-2415,-5444,59.52,64.76,60.06,66.80855469,0,0,0.011316872,0.003465524
100,0,1.1,2,32.85714286,1136,-7954,902,-159,-58,-627,-890.1650271,-9384.515783,-826.3086763,3008.947908,-2758.565513,-5526.477022,59.52,64.76,60.06,66.86910156,0,0,0,0.060546875
100,0,1.1,2,33.57142857,1018,-8043.140152,812.4945055,-173.3444056,-60.63636364,-631.4926471,-1066,-9458,-668,2932,-3108,-5575,59.51486784,64.77197504,60.08753926,66.82253906,-0.00513216,0.01197504,0.02753926,-0.0465625
100,0,1.1,2,34.28571429,900,-8156,722,-189,-62,-640,-1248,-9646,-580,2851,-3512,-5572,59.50059264,64.80528384,60.13234688,66.79659475,-0.0142752,0.0333088,0.04480762,-0.025944314
100,0,1.1,2,35,1023,-8198.859848,720.5054945,-197.3810445,-55,-652.5073529,-1270,-9756,-536,2797,-3747,-5523,59.48286144,64.84665664,60.17421578,66.85879707,-0.0177312,0.0413728,0.041868899,0.06220232
100,0,1.1,2,35.71428571,1146,-8218,720,-203,-48,-661,-1512.47546,-9877.176604,-297.5728781,2690.882536,-3819.371632,-5444.158408,59.46743424,64.88265344,60.18,66.86617342,-0.0154272,0.0359968,0.005784222,0.007376348
100,0,1.1,2,36.42857143,1034,-8198,940,-206,-75,-602,-2001.411625,-10013.01816,130.2315816,2540.013032,-3865.074705,-5346.894112,59.46007104,64.89983424,60.18,66.84617981,-0.0073632,0.0171808,0,-0.019993603
100,0,1.1,2,37.14285714,1264,-7878,944,-231,-77,-609,-2488,-10188,524,2378,-3881,-5260,59.46,64.9,60.18,66.81605436,-7.10E-05,0.00016576,0,-0.030125453
100,0,1.1,2,37.85714286,1286,-8104,672,-252,-82,-640,-2888,-10474,798,2207,-3622,-5196,59.46,64.90014832,60.18175781,66.78213108,0,0.000148321,0.001757813,-0.033923285
100,0,1.1,2,38.57142857,1251.297619,-8130.454251,732.8505917,-269.5344958,-92.70588235,-668.3567207,-2950,-10824,988,1971,-3163,-5009,59.46,64.90506716,60.2221875,66.72855655,0,0.004918838,0.040429688,-0.053574529
100,0,1.1,2,39.28571429,1176,-8156,862,-293,-108,-695,-2934.962963,-10790.5063,880.6666667,1838.124151,-2802.48258,-4795.027796,59.46,64.91611569,60.26777344,66.72,0,0.011048525,0.045585938,-0.008556548
100,0,1.1,2,40,1000.702381,-8648.332016,1139.149408,-373.4824363,-133.0147059,-715.9934597,-2907.037037,-10692.56816,681.3333333,1738.470448,-2479.485356,-4550.188549,59.46,64.93215885,60.3,66.72,0,0.016043169,0.032226562,0
100,0,1.1,2,40.71428571,866,-9116,1348,-453,-150,-744,-2892,-10534,574,1643,-2113,-4237,59.46,64.95206162,60.3,66.72,0,0.019902769,0,0
100,0,1.1,2,41.42857143,878,-8516,1037,-476.2936742,-149.5,-850.9394511,-3146,-9962,788,1544,-1634,-3734,59.46,64.97657113,60.3,66.71755137,0,0.024509508,0,-0.00244863
100,0,1.1,2,42.14285714,890,-7916,726,-491,-149,-960,-3338,-9580,886,1465,-1291,-3306,59.46,65.0308078,60.3,66.66267123,0,0.054236668,0,-0.054880137
100,0,1.1,2,42.85714286,708,-8140,1006,-502,-172,-990,-3502,-9164,864,1218,-702,-2729,59.46,65.04,60.31714635,66.6173712,0,0.009192201,0.017146346,-0.045300035
100,0,1.1,2,43.57142857,639.6296296,-8139.832608,990.9003652,-543.4797221,-180.8778384,-1086.914842,-3586.602388,-8980.125485,781.3735365,971.9472667,-229.0028675,-2029.358226,59.46,65.04,60.35940159,66.57609241,0,0,0.042255241,-0.04127879
100,0,1.1,2,44.28571429,594.3703704,-8139.220772,957.5785081,-612.9839412,-186.5031515,-1243.604194,-3660,-8902,646,742,142,-1333,59.46,65.04,60.36,66.45319792,0,0,0.000598412,-0.12289449
100,0,1.1,2,45,578,-8138,924,-678,-195,-1392,-3758,-9076,466,549,382,-766,59.46,65.04,60.36,66.31811496,0,0,0,-0.135082955
100,0,1.1,2,45.71428571,646,-8064,896,-726,-215,-1506,-3696.184113,-9184.80426,314.888595,345.600553,622.2875989,-69.45994203,59.46,65.04,60.36,66.2262424,0,0,0,-0.091872566
100,0,1.1,2,46.42857143,682.0456736,-8085.259259,900.1481481,-795.279244,-241.1864411,-1654.487116,-3540,-9350,108,102,756,549,59.46,65.04,60.36,66.13598258,0,0,0,-0.090259812
100,0,1.1,2,47.14285714,708.619418,-8124.740741,907.8518519,-876.7418601,-271.5572587,-1824.432633,-2996.06558,-15681.0339,-743.7771399,-365.9659274,589.9825175,863.0638708,59.46,65.04,60.36,66.05596078,0,0,0,-0.080021809
100,0,1.1,2,47.85714286,744,-8146,912,-950,-303,-1993,-2134,-21878,-1450,-691,280,1228,59.4244043,65.04,60.3955957,66.01186114,-0.035595703,0,0.035595703,-0.044099633
100,0,1.1,2,48.57142857,799.6307428,-7980,900,-1006.159495,-329.7576144,-2156.54584,-1176,-5936,1018,98,-66,2316,59.4,65.04,60.41446289,65.95696743,-0.024404297,0,0.018867187,-0.054893713
100,0,1.1,2,49.28571429,886,-7814,888,-1059,-368,-2310,-3410,-4864,1202,-69,751,2286,59.4,65.04,60.36553711,65.85249333,0,0,-0.048925781,-0.104474101
100,0,1.1,2,50,1132.838488,-8406.761783,1221,-1122.941752,-519.3290505,-2460.455425,1365,-6493.910366,3740.125192,62,1553.418729,1662.510638,59.4,65.04,60.38214126,65.79723556,0,0,0.016604149,-0.055257769
100,0,1.1,3,50.71428571,1326,-9344,1554,-1173,-684,-2561,6140,-8840,6122,193,1997,1065,59.4,65.04,60.42,65.76,0,0,0.037858742,-0.037235558
100,0,1.1,3,51.42857143,525.4074074,-10131.38646,1400.655625,-1192.903567,-749.8825402,-2585.364003,6015.765642,-10309.13918,4673.25,184.71875,1572,1176.464753,59.4,65.08416853,60.42,65.72245027,0,0.044168532,0,-0.037549729
100,0,1.1,3,52.14285714,-961.4074074,-10871.91545,1004.200139,-1205.948267,-796.4798189,-2597.99842,5627.541712,-11679.17927,1486,166.5,637,1482.739342,59.4,65.11,60.42,65.67004129,0,0.025831468,0,-0.052408982
100,0,1.1,3,52.85714286,-1762,-11200,460,-1226,-839,-2629,4952.046926,-12691.12973,-1701.25,148.28125,-298,1941.64426,59.4,65.11,60.42,65.57751617,0,0,0,-0.092525124
100,0,1.1,3,53.57142857,-42,-9644,-576,-1275,-881,-3010,3966,-13086,-3150,140,-723,2511,59.4,65.11,60.40101563,65.4833135,0,0,-0.018984375,-0.094202664
100,0,1.1,3,54.28571429,-300.4375,-10167.125,-416.3125,-1335.922013,-905.3181818,-3284.164379,-502,-8354,2790,327,-140,3640,59.4,65.11,60.36,65.4,0,0,-0.041015625,-0.083313501
100,0,1.1,3,55,-869,-11318,-65,-1404.625123,-925.7272727,-3517.550947,-5078,-7592,5464,-555,145,3577,59.4,65.11,60.40101563,65.34394531,0,0,0.041015625,-0.056054688
100,0,1.1,3,55.71428571,-1437.5625,-12468.875,286.3125,-1460.765671,-939.7727273,-3722.912041,-10458,-9970,2512,-1348,-126,4072,59.4,65.11,60.4115978,65.33,0,0,0.010582177,-0.013945312
100,0,1.1,3,56.42857143,-1696,-12992,446,-1484,-945,-3913,-5538,-8773,423.5667075,-1206.347439,-142.4040478,3913.539689,59.4,65.11,60.36494606,65.33,0,0,-0.04665174,0
100,0,1.1,3,57.14285714,-1155.703704,-12975.92036,280.0740741,-1479.074074,-928.9259259,-4121.460224,-618,-7576,-608,-1040,-151,3654,59.4,65.10626816,60.36,65.30416853,0,-0.00373184,-0.004946061,-0.025831468
100,0,1.1,3,57.85714286,-152.2962963,-12918.95182,-28.07407407,-1469.925926,-899.0740741,-4313.00789,-2598,-7584,-304,-1008,-161,3457,59.4,65.09122656,60.36,65.26,0,-0.0150416,0,-0.044168532
100,0,1.1,3,58.57142857,388,-12808,-194,-1465,-883,-4397,-3846,-7638,714,-936,-9,2895,59.4,65.07080896,60.36,65.26,0,-0.0204176,0,0
100,0,1.1,3,59.28571429,-92,-10310,102,-1476,-929,-4317,-2956.036649,-7575,665.1210191,-908.9480352,69.19904548,2443.341706,59.4,65.05173536,60.36,65.25261719,0,-0.0190736,0,-0.007382812
100,0,1.1,3,60,1032.173623,-9850.463942,300.0171965,-1467.5,-940.0442435,-4380,-1624,-7512,522,-878,104,2143,59.4,65.04072576,60.36,65.18738281,0,-0.0110096,0,-0.065234375
100,0,1.1,3,60.71428571,3040,-9692,396,-1459,-951,-4443,-864,-8212,-300,-746,88,2035,59.4,65.04,60.36,65.18,0,-0.00072576,0,-0.007382812
100,0,1.1,3,61.42857143,5509.826377,-10819,33,-1472.2,-1002.170101,-4431.991349,-568.8235294,-8245.907216,-691.7414234,-560.0217062,20.54037685,2029.035848,59.4,65.04,60.36,65.18,0,0,0,0
100,0,1.1,3,62.14285714,7096,-11946,-330,-1492,-1084,-4401,-448,-8256,-862,-383,-35,2024,59.4,65.04,60.36,65.18,0,0,0,0
100,0,1.1,4,62.85714286,6290.494087,-11144.0715,233,-1506.3,-1176.025043,-4082.807632,-809.9259259,-8228,-462.0539942,-245.6472349,-23.56028369,1973.788761,59.39935282,65.04075504,60.35860255,65.18106322,-0.000647179,0.000755043,-0.001397446,0.001063217
100,0,1.1,4,63.57142857,5136,-9642,796,-1514,-1286,-3576,-1482.074074,-8176,348.1142339,-129.1569508,1.879432624,1871.429373,59.38957118,65.05216695,60.33940229,65.19744825,-0.009781639,0.011411912,-0.019200267,0.016385037
100,0,1.1,4,64.28571429,4499.744902,-7851.153151,712.3,-1467.502741,-1413.893654,-3166.965407,-1844,-8148,984,-80,28,1760,59.37275166,65.07178973,60.31318975,65.22673874,-0.016819522,0.019622776,-0.026212539,0.029290482
100,0,1.1,4,65,4052,-6072,580,-1376,-1559,-2732,-1764,-8260,1330.47741,-86.63084112,56.50531915,1642.976732,59.35501415,65.09248349,60.3,65.26,-0.017737507,0.020693759,-0.013189749,0.033261264
100,0,1.1,4,65.71428571,3810,-4908,490,-1257,-1723,-2217,-1684,-8372,1500,-102,74,1525,59.34247856,65.10710835,60.3,65.30244308,-0.012535593,0.014624859,0,0.042443085
100,0,1.1,4,66.42857143,3242,-2252,56,-1099,-1750,-1443,-1685.341037,-8263.413043,1471,-143.8831254,66.90662651,1422.108926,59.34,65.11,60.2915978,65.34972906,-0.002478559,0.002891652,-0.008402198,0.047285974
100,0,1.1,4,67.14285714,2568,1514,-238,-881,-1004,-950,-1690,-8102,1442,-187,59,1340,59.34,65.11,60.24494606,65.3960798,0,0,-0.04665174,0.04635074
100,0,1.1,4,67.85714286,2150.729091,-898,-1319.587754,-514.1012681,-19.55583796,-1141.5,-1908,-8012,1520,-201,58,1291,59.34695384,65.11,60.24,65.4,0.006953836,0,-0.004946061,0.0039202
100,0,1.1,4,68.57142857,1726,-3310,-2188,-143,688,-1333,-1994.355574,-8081.375,1396.25,-203.3314469,55.95305024,1211.447637,59.37136322,65.11,60.24,65.4,0.024409383,0,0,0
100,0,1.1,4,69.28571429,809.2889259,-3214,-456,100.7368015,881.8968416,-737.7908685,-2059.871622,-8234,1124,-204.8779528,53.02392344,1107.175414,59.39477085,65.11,60.19898438,65.4,0.02340763,0,-0.041015625,0
100,0,1.1,4,70,166,-3118,1276,295,959,241,-2101.451858,-8386.625,851.75,-205.7354823,50.08283493,995.3154839,59.4,65.11,60.189375,65.4109375,0.005229151,0,-0.009609375,0.0109375
100,0,1.1,4,70.71428571,546,-3128,1080,447,834,993,-2116,-8456,728,-206,48,893,59.4,65.11,60.23742188,65.46699219,0,0,0.048046875,0.056054687
100,0,1.1,4,71.42857143,1110.047059,-2745,362.162984,624.5111308,670.6055428,1676.06568,-1922,-8304.774545,801,-173.7894737,46.65909091,792.4696165,59.4,65.15568098,60.21497942,65.47,0,0.045680981,-0.022442451,0.003007813
100,0,1.1,4,72.14285714,1468,-2362,-368,823,509,2300,-1728,-8092,874,-138,46,720,59.4,65.26,60.18,65.47,0,0.104319019,-0.034979424,0
100,0,1.1,4,72.85714286,1444,-2378.817204,-647.6616216,1059.539843,381.9951191,2865.537412,-1738.371841,-7968.225455,659,-134.2105263,56,688.5722477,59.4,65.35376077,60.18,65.51785156,0,0.093760773,0,0.047851563
100,0,1.1,4,73.57142857,1420,-2430,-770,1289,276,3364,-1762,-7906,444,-130,66,675,59.4,65.42145948,60.18,65.54,0,0.067698702,0,0.022148438
100,0,1.1,4,74.28571429,1530,-2806,-650,1460,195,3768,-1810,-8086,522,-90,44,699,59.4,65.4609548,60.18,65.54,0,0.03949532,0,0
100,0,1.1,4,75,1566,-3598,-466,1670,46,4396,-1761.779817,-8039.158031,727.0269263,-42.22857143,51.5,662,59.4,65.49599283,60.18,65.56043262,0,0.035038034,0,0.020432617
100,0,1.1,4,75.71428571,1402,-4012,-460,1780,-60,4806,-1666,-7960,880,-14,59,625,59.40067383,65.54705264,60.17932617,65.61464486,0.000673828,0.051059811,-0.000673828,0.054212239
100,0,1.1,4,76.42857143,1398.346922,-4449.734921,-616.0740741,1937.311537,-229.8341671,5300.556844,-1538,-7894,744,-27,54,642,59.44608398,65.66177094,60.13391602,65.6621342,0.045410156,0.114718295,-0.045410156,0.047489345
100,0,1.1,4,77.14285714,1396.506795,-4901.676043,-905.9259259,2122.825843,-441.3259631,5828.938729,-1846,-8126,776,7,46,620,59.46,65.69,60.12,65.72630627,0.013916016,0.028229065,-0.013916016,0.064172065
100,0,1.1,4,77.85714286,1396,-5360,-1062,2295,-639,6279,-1772.888889,-8062.740741,896.2424242,-5.839821685,46.68564027,626.7407407,59.46,65.69,60.12,65.80988604,0,0,0,0.083579778
100,0,1.1,4,78.57142857,1554,-5826,-970,2435,-799,6598,-1637.111111,-7945.259259,1070.787879,-36.23519893,48.9268361,639.2592593,59.47813817,65.66524829,60.11304616,65.86776999,0.018138174,-0.024751712,-0.006953836,0.057883951
100,0,1.1,4,79.28571429,1628,-6506,-628,2577,-954,7002,-1564,-7882,1160,-72,53,646,59.52382054,65.60529749,60.08863678,65.9130531,0.045682363,-0.059950796,-0.024409383,0.045283102
100,0,1.1,4,80,1202.364684,-6920.84747,-759.9988328,2644.790996,-947.5892283,7188.043864,-1586,-8098,1102,-116,85,634,59.56783788,65.55380983,60.06522915,65.95431495,0.044017341,-0.051487666,-0.02340763,0.041261848
100,0,1.1,4,80.71428571,554,-7334,-1058,2698,-929,7313,-1588.886774,-8371.330781,1276,-146.2193139,96.33201707,652.9763186,59.58,65.5634375,60.06,65.99776444,0.012162122,0.009627675,-0.005229151,0.04344949
100,0,1.1,4,81.42857143,162,-8004,-1646,2757,-828,7407,-1592,-8536,1450,-177,102,695,59.58,65.68355469,60.06,66.04146715,0,0.120117188,0,0.043702719
100,0,1.1,4,82.14285714,269.8875944,-8993.73822,-1622,2823.480692,-584.6061765,7541.577694,-1636,-7920,1340,-224,104,773,59.60735599,65.69,60.03264401,66.09143066,0.027355994,0.006445312,-0.027355994,0.04996351
100,0,1.1,4,82.85714286,520,-9988,-1544,2862,-213,7626,-1653.033898,-7692.313095,1290.595252,-267.4182614,107.7774725,801.5081549,59.64,65.6904632,60,66.12,0.032644006,0.000463201,-0.032644006,0.028569335
100,0,1.1,4,83.57142857,1058,-10670,-524,2812,315,7562,-1660,-7584,1246,-310,112,825,59.64,65.72933523,60,66.12,0,0.038872025,0,0
100,0,1.1,4,84.28571429,1295.165621,-11220.26198,-531.2019231,2721.793057,703.9382789,7457.419798,-1629.407407,-7546.67377,1153.786218,-359.1925207,114.6866097,858.9617552,59.64664689,65.78048588,59.99865615,66.12,0.006646892,0.051150651,-0.001343846,0
100,0,1.1,4,85,1479.702774,-11738.34398,-552.5384615,2594.726858,1030.907661,7316.05892,-1572.592593,-7522.559107,1044.670887,-408.7444085,117.0655271,899.1936229,59.69185199,65.8279205,59.98549072,66.12,0.045205096,0.047434625,-0.013165437,0
100,0,1.1,4,85.71428571,1599.38854,-12123.25399,-587.6057692,2447.54723,1347.173212,7147.168582,-1542,-7514,992,-442,121,947,59.72826222,65.83,59.96309942,66.12,0.036410229,0.002079498,-0.022391301,0
100,0,1.1,4,86.42857143,1642,-12274,-636,2297,1704,6960,-1886,-7730,1018,-456,133,1012,59.7636577,65.83063356,59.93708378,66.12,0.035395479,0.000633562,-0.026015637,0
100,0,1.1,4,87.14285714,1515.82936,-11802.23881,-887.7307692,2137.808142,2188.177702,6710.861542,-1812,-7750,1326,-512,140,990,59.80139505,65.88076199,59.89117531,66.12,0.037737353,0.050128425,-0.045908466,0
100,0,1.1,4,87.85714286,1368,-11196,-1112,1967,2588,6460,-2004,-7884,1280,-548,153,1044,59.84158004,65.93586638,59.88,66.12,0.040184987,0.05510439,-0.011175313,0
100,0,1.1,4,88.57142857,1340,-11004,-736,1793,2750,6292,-2201.256177,-8011.951018,1215.878378,-604.6269592,178.1558442,1068.610205,59.87845924,65.97825991,59.88,66.12,0.0368792,0.042393538,0,0
100,0,1.1,4,89.28571429,1650.881665,-11013.85185,-309.5357978,1524.09891,2685.208423,6050.239819,-2312,-8082,1176,-676,205,1083,59.88,65.98,59.88,66.14744054,0.001540764,0.001740086,0,0.027440538
100,0,1.1,4,90,2257.318887,-11032.14815,104.2321011,1210.354753,2534.416845,5758.990149,-2080,-7912,1186,-761,222,1090,59.8804541,65.98078613,59.88,66.20476999,0.000454102,0.000786133,0,0.057329452
100,0,1.1,4,90.71428571,2670,-11042,290,977,2363,5468,-2128,-8302,1174,-768,239,1098,59.91722168,66.03376465,59.88,66.25863381,0.036767578,0.052978516,0,0.053863817
100,0,1.1,4,91.42857143,2774,-10552,174,862,2170,5194,-2140,-7788,886,-861,254,1177,59.96277832,66.05,59.88,66.25376465,0.045556641,0.016235352,0,-0.004869159
100,0,1.1,4,92.14285714,2902.308986,-9918.819071,139.1541096,847.9319795,1901.560694,4776.567337,-2153.45968,-7738.686821,804.2959906,-918.7749345,275.895933,1224.870238,59.9995459,66.05,59.88,66.20078613,0.036767578,0,0,-0.052978516
100,0,1.1,4,92.85714286,3049.766168,-9192.561397,114.1369863,842.8601581,1574.509552,4232.836932,-2168.982224,-7707.33273,746.2075472,-965.1345671,303.3014354,1262.656445,60,66.0242754,59.88,66.2,0.000454102,-0.025724596,0,-0.000786133
100,0,1.1,4,93.57142857,3229.840266,-8594.523024,99.05136986,837.6082577,1207.453634,3579.438061,-2194.513656,-7690.812274,711.5153302,-1003.926916,334.0562201,1294.614431,60,65.97593225,59.87991302,66.2,0,-0.048343156,-8.70E-05,0
100,0,1.1,4,94.28571429,3456,-8346,94,823,819,2833,-2238,-7686,700,-1039,366,1325,60,65.93558429,59.87068107,66.2,0,-0.040347955,-0.009231955,0
100,0,1.1,4,95,3832,-8728,216,662,378,1820,-2568,-8508,702,-1069,401,1353,60,65.87362139,59.85042983,66.2,0,-0.061962905,-0.020251239,0
100,0,1.1,4,95.71428571,3996,-8974,280,501,71,1085,-2518.764682,-8931.61397,790.451668,-1100.746303,469.9932595,1410.967001,60,65.77868928,59.82513737,66.2,0,-0.094932111,-0.025292459,0
100,0,1.1,4,96.42857143,4188.69735,-12172.12569,-159.1851852,240.8324192,-126.1776621,301.5800662,-2384.180316,-9262.24049,1006.631468,-1131.400529,572.9557653,1500.952172,60,65.68448641,59.78489731,66.2,0,-0.09420287,-0.040240059,0
100,0,1.1,4,97.14285714,4378.348675,-17688.84062,-974.8148148,-72.04665427,-281.0158576,-500.859552,-2183.929283,-9528.335956,1286.407801,-1164.707845,689.6626048,1614.251786,60,65.59253021,59.76,66.2,0,-0.091956196,-0.02489731,0
100,0,1.1,4,97.85714286,4464,-20618,-1414,-319,-384,-1263,-1937.693965,-9758.356766,1565.649068,-1204.413417,799.8888654,1742.162114,60,65.50980257,59.76,66.2,0,-0.082727641,0,0
100,0,1.1,4,98.57142857,4209.314738,-15396.79574,-762.4371257,-495.1111854,-428.1847859,-2120.054478,-1665.156744,-9980.759315,1780.223667,-1254.262413,883.4096346,1875.979428,60,65.43019743,59.76,66.18330959,0,-0.07960514,0,-0.016690413
100,0,1.1,4,99.28571429,3452,-9696,450,-584,-486,-2616,-1386,-10224,1866,-1318,920,2007,60,65.34746979,59.76,66.12306127,0,-0.082727641,0,-0.060248321
100,0,1.1,4,100,-1320,-9118,1790,-67,-960,-2143,-947.5974618,-10459.60229,1439.259259,-1461.215719,924.0273431,2137.443415,60,65.25487421,59.76,66.12,0,-0.092595575,0,-0.003061266
100,0,1.1,1,0,-7448,-8372,3222,211,-1794,-1521,-422.4653976,-10684.66332,646.7407407,-1672.477923,926.2434466,2280.517303,59.99770405,65.16308685,59.75770405,66.11732139,-0.00229595,-0.091787364,-0.00229595,-0.002678608
100,0,1.1,1,0.763358779,-7318,-4330,24,143,-2088,-1371,-168,-10966,220,-1840,931,2444,59.95251781,65.08537236,59.71251781,66.06460411,-0.045186241,-0.077714495,-0.045186241,-0.052717281
100,0,1.1,1,1.526717557,-5786.245318,-5542.1875,893.6875,193,-1781.28125,-1709.90625,-348.7113515,-11378.84426,786,-1930.085565,983.0333376,2666.256195,59.94,64.97821778,59.7,66.05,-0.01251781,-0.107154579,-0.01251781,-0.014604112
100,0,1.1,1,2.290076336,-2687.662505,-8209,2807,303,-1106.5,-2455.5,-766,-11912,1352,-2003,1096,2876,59.94,64.8406796,59.7,66.05,0,-0.137538179,0,0
100,0,1.1,1,3.053435115,358.7515605,-10875.8125,4720.3125,413,-431.71875,-3201.09375,-1652,-12600,1280,-2072,1333,2998,59.94,64.74592318,59.7,66.05,0,-0.094756421,0,0
100,0,1.1,1,3.816793893,1734,-12088,5590,463,-125,-3540,424,-12898,1434,-2083,1458,3225,59.94,64.6796389,59.7,66.05,0,-0.066284277,0,0
100,0,1.1,1,4.580152672,1133.555556,-10892.81481,3408.592593,163.8148148,-212.8888889,-3501.111111,16,-13168,984,-2097,1397,3581,59.94,64.63930001,59.7,66.05,0,-0.040338893,0,0
100,0,1.1,1,5.34351145,18.44444444,-8673.185185,-642.5925926,-391.8148148,-376.1111111,-3428.888889,234,-13436,924,-2088,1397,3868,59.93628517,64.59631272,59.7,66.05,-0.003714834,-0.042987283,0,0
100,0,1.1,1,6.106870229,-582,-7478,-2824,-691,-464,-3390,398.1306131,-13651.21704,900.9895697,-2073.720815,1416.574276,4088.512951,59.91407964,64.54089825,59.7,66.05,-0.022205526,-0.055414469,0,0
100,0,1.1,1,6.870229008,629.0870564,-7735,-1999.256216,-415,-159,-3765,533.6208621,-13833.27519,886.5723846,-2054.271781,1458.592997,4278.476311,59.88886885,64.49456365,59.7,66.05,-0.025210786,-0.046334601,0,0
100,0,1.1,1,7.633587786,2464,-7992,-268,-139,146,-4140,590,-13910,858,-2030,1498,4445,59.88,64.48148037,59.7,66.05,-0.008868854,-0.013083285,0,0
100,0,1.1,1,8.396946565,3554,-6960,2458,-193,-88,-3753,-139.1852036,-12778,621.3667762,-1985.90124,1519.024935,4613.214899,59.88,64.52207363,59.7,66.05,0,0.04059326,0,0
100,0,1.1,1,9.160305344,2829.843286,-7352.106877,1840.41282,-329.3079777,-170.2435635,-3343.998661,-1818,-11646,302,-1951,1552,4716,59.88,64.5837037,59.68608398,66.06623535,0,0.061630075,-0.013916016,0.016235352
100,0,1.1,1,9.923664122,1504,-7804,578,-430,-203,-3051,-5348,-12460,128,-1946,1807,4732,59.88,64.61962212,59.64067383,66.11921387,0,0.035918413,-0.045410156,0.052978516
100,0,1.1,1,10.6870229,106,-7880,-1258,-257,-46,-2958,-6370.339898,-13924.16294,844.5775723,-1907.625094,2018.200864,4659.036865,59.88,64.62,59.64,66.12,0,0.000377884,-0.000673828,0.000786133
100,0,1.1,1,11.45038168,754,-7936,-940,-153,31,-2930,-6758,-14910,1830,-1845,2220,4495,59.88,64.62,59.64,66.12,0,0,0,0
100,0,1.1,2,12.21374046,1675.327915,-8095.090909,47.92336928,-114,-30.28700906,-2761.510666,-6046.732369,-13563.81102,2271.71798,-1794.700409,2432.473663,4204.966527,59.88,64.62,59.64,66.12,0,0,0,0
100,0,1.1,2,12.97709924,2252,-8216,814,-89,-95,-2493,-4600,-11100,2616,-1715,2656,3708,59.88,64.62,59.64,66.12382658,0,0,0,0.003826583
100,0,1.1,2,13.74045802,1954,-7948,714,-69,-99,-2220,-1922.267631,-8595.432302,3005.704448,-1278.204236,2967.549894,2536.260688,59.88,64.62,59.64,66.14382019,0,0,0,0.019993603
100,0,1.1,2,14.50381679,2108.720257,-7759.15363,759.1725664,-31,-63,-1991.991338,20,-5692,3224,-668,3162,1252,59.88,64.62,59.64,66.17394564,0,0,0,0.030125453
100,0,1.1,2,15.26717557,2402,-7666,878,-5,-27,-1779,-1560,-2332,1334,-245,2730,603,59.88,64.62300781,59.64,66.20786892,0,0.003007813,0,0.033923285
100,0,1.1,2,16.03053435,2744,-7936,1284,-13,-50,-1565,-2886,4246,-2224,-288,862,1428,59.88,64.6790625,59.64,66.26144345,0,0.056054687,0,0.053574529
100,0,1.1,2,16.79389313,2834.432062,-7873,1255.476141,-40.28445731,-53.73883929,-1363.59879,-2504.478508,3425.215631,-2160.58427,-92.07215226,492.5676422,1229.411199,59.86285365,64.69,59.64,66.27,-0.017146346,0.0109375,0,0.008556548
100,0,1.1,2,17.55725191,2868,-7810,1174,-76,-58,-1143,-1671.401461,1673.764596,-1977.168539,355.411251,277.6171544,723.9335087,59.82059841,64.69,59.64,66.27,-0.042255241,0,0,0
100,0,1.1,2,18.32061069,2256,-8336,766,-103,-133,-847,-854,58,-1684,844,208,47,59.82,64.69,59.64,66.34626569,-0.000598412,0,0,0.076265687
100,0,1.1,2,19.08396947,2140.371396,-8419.800336,713.1544426,-94.93313953,-104.5,-711.1250942,-216,-1022,-690,1341,426,-1147,59.81868105,64.68846123,59.64,66.43501049,-0.00131895,-0.001538775,0,0.088744807
100,0,1.1,2,19.84732824,2038,-8448,676,-78,-76,-612,-171.5645161,-1540.211305,376.3775885,1613.214587,463.2993982,-2045.256306,59.80039284,64.66712497,59.64,66.47119803,-0.018288215,-0.021336251,0,0.036187535
100,0,1.1,2,20.61068702,1654.653005,-8050,581.6,-46.34338566,-91.5,-506.2754773,-158,-1906,984,1837,476,-2750,59.77477712,64.63723998,59.64,66.53451074,-0.025615713,-0.029884999,0,0.06331271
100,0,1.1,2,21.3740458,1174,-7652,516,-17,-107,-428,-285.712,-2212.404849,696.752,2090.713676,410.6528437,-3303.942592,59.76015266,64.6201781,59.64,66.63075952,-0.014624466,-0.017061877,0,0.096248781
100,0,1.1,2,22.13740458,844,-7774,530,-8,-89,-393,-590.256,-2457.200697,11.776,2351.030379,249.7185311,-3787.762789,59.76,64.66152832,59.64,66.72451346,-0.000152656,0.041350221,0,0.093753936
100,0,1.1,2,22.90076336,1142,-8170,466,4,-89,-436,-953.744,-2687.99412,-805.776,2607.090243,45.85779666,-4215.11169,59.75505394,64.68422959,59.64,66.81621038,-0.004946061,0.022701275,0,0.091696925
100,0,1.1,2,23.66412214,1163.450233,-8305.357942,551.7245696,-4.037037037,-93.14814815,-447.7356725,-1258.288,-2952.391695,-1490.752,2848.033405,-148.2686252,-4599.640394,59.7084022,64.62980256,59.64,66.90055525,-0.04665174,-0.05442703,0,0.084344866
100,0,1.1,2,24.42748092,1174.725116,-8392.901193,718.7824726,-18.96296296,-100.8518519,-454.0678363,-1386,-3298,-1778,3063,-280,-4955,59.7,64.63418914,59.64,67.01741152,-0.008402198,0.004386578,0,0.116856273
100,0,1.1,2,25.19083969,1178,-8424,832,-27,-105,-466,-1272,-3811.690561,-1597.259448,3266.061188,-338.7029841,-5264.640257,59.7,64.68554271,59.64,67.1585046,0,0.051353564,0,0.141093078
100,0,1.1,2,25.95419847,604,-7942,860,-11,-60,-512,-1158,-4504,-1220,3410,-404,-5549,59.7,64.7388388,59.6755957,67.27803354,0,0.05329609,0.035595703,0.119528947
100,0,1.1,2,26.71755725,646,-7710,924,-26,-46,-556,-1218,-5462,-636,3466,-576,-5842,59.69505394,64.76,59.7,67.31340525,-0.004946061,0.021161203,0.024404297,0.035371707
100,0,1.1,2,27.48091603,787.1790588,-7866.592593,1001.579492,-46.18707777,-46.91959099,-605.953906,-1410,-6148,-562,3462,-680,-6020,59.6484022,64.76,59.7,67.25120293,-0.04665174,0,0,-0.06220232
100,0,1.1,2,28.24427481,986.7006405,-8157.407407,1078.900857,-70.01257362,-49.61695976,-661.96106,-1616.195356,-7089.09813,-804,3508.963972,-803.2007128,-6173.667951,59.64,64.76,59.71211785,67.24,-0.008402198,0,0.012117852,-0.011202931
100,0,1.1,2,29.00763359,1088,-8314,1114,-95,-54,-730,-1836,-7760,-1046,3567,-940,-6318,59.64,64.76,59.76,67.24,0,0,0.047882148,0
100,0,1.1,2,29.77099237,901.6050955,-7851,1086,-121.4231419,-84.54727371,-835.2226975,-2127.383528,-7892.705127,-1007.174545,3587.212198,-1101.187798,-6463.590743,59.64,64.80416853,59.83259805,67.20646991,0,0.044168532,0.072598052,-0.03353009
100,0,1.1,2,30.53435115,616,-7388,1058,-148,-115,-939,-2432.088878,-7965.265676,-911.0157568,3601.550544,-1272.813269,-6606.410414,59.64,64.83,59.89452066,67.15446896,0,0.025831468,0.061922608,-0.05200095
100,0,1.1,2,31.29770992,440,-7828,1176,-172,-118,-998,-2580,-8072,-788,3607,-1411,-6741,59.64,64.83,59.93498473,67.09804179,0,0,0.040464075,-0.056427166
100,0,1.1,2,32.0610687,700,-8154,1186,-250,-131,-1134,-2590.202164,-8292.842338,-542.4286368,3563.23957,-1499.725093,-6872.065053,59.62101563,64.83,59.94,67.09,-0.018984375,0,0.005015266,-0.008041794
100,0,1.1,2,32.82442748,863.8447065,-8189.436328,1119,-278.4259669,-120.5,-1240.99848,-2594,-8618,-360,3500,-1578,-6980,59.58,64.83,59.94,67.09,-0.041015625,0,0,0
100,0,1.1,2,33.58778626,998,-8222,1052,-303,-110,-1306,-2566,-9114,-370,3468,-1666,-7046,59.58,64.83,59.96904824,67.04583147,0,0,0.029048244,-0.044168532
100,0,1.1,2,34.35114504,1110.398632,-8584.48294,1315,-348.1270767,-145,-1322.94,-2622,-9578,-522,3405,-1873,-7095,59.58,64.82354004,60.0111261,67.02,0,-0.006459961,0.042077861,-0.025831468
100,0,1.1,2,35.11450382,1248,-8916,1578,-399,-180,-1334,-2485.227273,-9807.252145,-689.5722449,3357.385859,-2164.736395,-7056.157666,59.58,64.76645996,60.04912737,67.02,0,-0.057080078,0.038001265,0
100,0,1.1,2,35.8778626,1660.588595,-8741.783417,1270.951983,-449.7927233,-175,-1348.08,-2268,-9908,-828,3320,-2465,-6973,59.55983539,64.78352538,60.0845912,66.99311385,-0.020164609,0.017065416,0.035463832,-0.026886145
100,0,1.1,2,36.64122137,1980,-8386,914,-486,-170,-1356,-2118,-9880,-900,3294,-2696,-6834,59.52053498,64.82937586,60.11707106,66.94071331,-0.039300412,0.04585048,0.032479857,-0.052400549
100,0,1.1,2,37.40458015,1856,-7870,850,-497,-198,-1337,-2467,-9883.645161,-795.2654584,3260.508898,-2912.345225,-6676.824546,59.52,64.78847168,60.14398163,66.9471052,-0.000534979,-0.040904178,0.02691057,0.006391897
100,0,1.1,2,38.16793893,1890,-8006,494,-553,-244,-1410,-2816,-9896,-588,3215,-3030,-6496,59.52,64.76645996,60.16729521,66.96675688,0,-0.022011719,0.023313582,0.019651676
100,0,1.1,2,38.93129771,1765,-7824,558.8136594,-555.208502,-214.5,-1420.709999,-2804,-10196,-314,3136,-2998,-6266,59.52,64.82354004,60.18944957,66.99089648,0,0.057080078,0.022154358,0.024139602
100,0,1.1,2,39.69465649,1640,-7642,656,-557,-185,-1428,-2756.585551,-10486.74832,133.8471247,3034.882274,-2897.6007,-6004.789034,59.52,64.83,60.21287455,67.01136414,0,0.006459961,0.02342498,0.020467662
100,0,1.1,2,40.45801527,1686.042659,-7698.10027,725.7386797,-568.5281164,-199.5036273,-1438.830213,-2718,-10782,560,2908,-2739,-5701,59.52,64.83,60.24,67.02,0,0,0.02712545,0.008635858
100,0,1.1,2,41.22137405,1784.529762,-7821.756096,787.4248954,-592.40711,-237.7850325,-1451.634207,-2874.561404,-11168.3799,845.3603354,2742.085342,-2549.632594,-5354.628931,59.48214126,64.83,60.2829089,66.94077057,-0.037858742,0,0.042908901,-0.079229428
100,0,1.1,2,41.98473282,1876,-7946,814,-623,-292,-1469,-3215.122807,-11565.52328,1076.680168,2537.067682,-2311.262283,-4946.611328,59.46,64.83,60.3,66.85207715,-0.022141258,0,0.017091099,-0.088693423
100,0,1.1,2,42.7480916,1954.035342,-8039.615189,793.7818074,-673.3361452,-450.8917526,-1500.106429,-3546,-11748,1172,2303,-2025,-4416,59.46,64.83,60.3,66.80342652,0,0,0,-0.048650626
100,0,1.1,2,43.51145038,1998,-8152,752,-730,-580,-1542,-3798,-11430,980,2013,-1630,-3533,59.46,64.84863623,60.31883737,66.76178922,0,0.018636227,0.018837372,-0.041637306
100,0,1.1,2,44.27480916,1683.259259,-8397.668753,695.5364623,-769.9249769,-541.6296296,-1584.435475,-4133.90152,-10889.83961,912.7430686,1692.141366,-1162.655944,-2660.351874,59.46,64.9,60.36,66.72,0,0.051363773,0.041162628,-0.041789217
100,0,1.1,2,45.03816794,1098.740741,-8707.501043,615.8244109,-805.1435556,-470.3703704,-1632.815185,-4481.728538,-10275.03091,872.5281878,1349.106645,-664.5090479,-1792.85602,59.46,64.94387307,60.37537106,66.66571298,0,0.043873072,0.015371064,-0.054287016
100,0,1.1,2,45.80152672,784,-8860,518,-843,-432,-1695,-4642,-9982,792,983,-223,-924,59.46,64.98972906,60.38512977,66.60299434,0,0.045855987,0.009758706,-0.062718647
100,0,1.1,2,46.5648855,1474,-8420,378,-888,-481,-1796,-4423.73525,-10530.9983,280.0702226,622.4035864,204.5108069,54.9906908,59.46,65.0360798,60.39320294,66.5304192,0,0.04635074,0.008073174,-0.072575139
100,0,1.1,2,47.32824427,1102,-8566.391304,301,-939.5758597,-547.2257282,-1892.266515,-3782,-12256,-790,154,440,823,59.46,65.01416853,60.40351741,66.44656271,0,-0.021911267,0.010314468,-0.083856492
100,0,1.1,2,48.09160305,730,-8784,266,-995,-588,-2001,-6,-28464,-3058,-753,-467,1147,59.46,64.97,60.42,66.35,0,-0.044168532,0.016482588,-0.096562706
100,0,1.1,2,48.85496183,903,-8883.037948,317.3273872,-1056.941417,-557,-2148.837406,794,-13768,-408,-163,-1675,2289,59.46,64.97,60.47078719,66.2028443,0,0,0.050787192,-0.147155703
100,0,1.1,2,49.61832061,1076,-9018,446,-1113,-526,-2332,2232.557104,-10665.8847,816.9029462,-196.385688,-1152.1875,2160.25,59.4515978,64.97980256,60.49,66.08214836,-0.008402198,0.009802565,0.019212808,-0.120695935
100,0,1.1,2,50.38167939,966,-9658,810,-1150,-541,-2565,4135.384092,-8552.841955,1781.469286,-288.1951679,-2,1877,59.40494606,65.03422959,60.49,66.00481441,-0.04665174,0.05442703,0,-0.077333952
100,0,1.1,3,51.14503817,848,-10180,702,-1230,-548,-2751,5795.519035,-7345.878233,2413.300982,-425.9070639,1148.1875,1593.75,59.4,65.04,60.49,65.91422907,-0.004946061,0.005770405,0,-0.090585342
100,0,1.1,3,51.90839695,244,-11760,1354,-1260,-615,-2946,6506,-6962,2640,-597,1671,1465,59.4,65.04,60.49,65.82147227,0,0,0,-0.092756799
100,0,1.1,3,52.67175573,86,-13044,1684,-1311,-671,-2961,5738.556607,-7151.531646,-2302,-1054.402416,1247.240398,1738.30604,59.4,65.04,60.49,65.73872605,0,0,0,-0.082746219
100,0,1.1,3,53.4351145,-359.7638889,-12420,1591.938005,-1267.028571,-769.4143824,-3209.659306,4228,-7606,-7244,-1420,662,2269,59.4,65.03354004,60.49,65.67274614,0,-0.006459961,0,-0.06597991
100,0,1.1,3,54.19847328,-698,-11796,1414,-1197,-889,-3630,2381.668324,-9233.468354,-4584.681684,-753.5,343.7596024,3046.389495,59.4,64.97645996,60.49,65.62385488,0,-0.057080078,0,-0.048891262
100,0,1.1,3,54.96183206,-374,-12872,1209.274999,-1135.971429,-1013.419266,-4086.712115,-48,-10596,134,-87,187,3700,59.4,64.97,60.46152832,65.58100579,0,-0.006459961,-0.02847168,-0.04284909
100,0,1.1,3,55.72519084,-50,-13948,942,-1101,-1127,-4455,-3334,-8320,4676,-281,570,3878,59.4,64.96930185,60.42,65.53387316,0,-0.000698148,-0.04152832,-0.047132624
100,0,1.1,3,56.48854962,-1526,-12992,568,-1138,-1205,-4590,-5341.709511,-8608,3135.869171,-911.7079886,178.5,4250.271441,59.4,64.92000407,60.42,65.44652476,0,-0.049297781,0,-0.087348401
100,0,1.1,3,57.2519084,-735.2260062,-11912.17307,393.4066478,-1140.164909,-1296.893256,-4831.057922,-6286,-8896,1032,-1481,-213,4512,59.4,64.9,60.42,65.37688769,0,-0.020004071,0,-0.069637072
100,0,1.1,3,58.01526718,538,-11286,318,-1142,-1370,-5060,-1510,-6270,168,-1578,6,4445,59.4,64.9,60.42,65.32071803,0,0,0,-0.05616966
100,0,1.1,3,58.77862595,1404.738534,-11721.68326,451.5329426,-1152.128326,-1397.727495,-5197.563798,-2605,-6595.389698,481.2530888,-1352.5,-28,4217.020141,59.4,64.9,60.42,65.27737149,0,0,0,-0.043346537
100,0,1.1,3,59.54198473,2350,-12434,736,-1174,-1427,-5264,-3700,-7168,1078,-1127,-62,3837,59.4,64.9,60.42,65.26,0,0,0,-0.017371495
100,0,1.1,3,60.30534351,4047.977728,-13093.15568,1254.025792,-1285.574335,-1505.781048,-5198.013468,-3556,-7706,1784,-1264,57,3280,59.4,64.9,60.42,65.26,0,0,0,0
100,0,1.1,3,61.06870229,6025.988864,-13737.68895,1979.694986,-1464.453834,-1648.925506,-5025.804714,-2261.728781,-7913.32304,1387.25,-1242.435185,48.36024845,2984.54987,59.4,64.8890625,60.42,65.25215517,0,-0.0109375,0,-0.007844828
100,0,1.1,4,61.83206107,6976,-14028,2576,-1558,-1853,-4786,-1086,-7998,680,-1196,31,2814,59.4,64.83300781,60.42,65.19294181,0,-0.056054688,0,-0.059213362
100,0,1.1,4,62.59541985,4772,-11476,2918,-1554,-2285,-4308,-1112,-7774,-10,-1117,7,2750,59.4,64.83,60.42,65.10225215,0,-0.003007813,0,-0.090689657
100,0,1.1,4,63.35877863,2948,-9642,2770,-1509,-2517,-3653,-1400,-7830,-632,-886,57,2637,59.4,64.82930185,60.42,65.04,0,-0.000698148,0,-0.062252153
100,0,1.1,4,64.1221374,3921.777778,-7237.110132,1827.698336,-1443.09442,-2474.013241,-2874.993231,-1802.810887,-7949.866635,-622.5486284,-719.9221599,57.77777778,2525.572893,59.4,64.78000407,60.42,65.04,0,-0.049297781,0,0
100,0,1.1,4,64.88549618,5730.222222,-4683.717407,218.526123,-1352.282472,-2351.915372,-2104.158065,-2120,-8038,-592,-577,58,2412,59.4,64.76,60.42,65.0290625,0,-0.020004071,0,-0.0109375
100,0,1.1,4,65.64885496,6704,-3072,-932,-1224,-2161,-1744,-2218,-8042,-216,-442,55,2291,59.4,64.76,60.42,64.97300781,0,0,0,-0.056054688
100,0,1.1,4,66.41221374,4010.643453,-2555.518029,-1435.507716,-942.2137704,-1277.75568,-1733.961835,-2269.903619,-8167.882376,286.0318528,-369.2327003,59.18589896,2062.824853,59.4,64.76,60.41113115,64.980347,0,0,-0.008868854,0.007339184
100,0,1.1,4,67.17557252,562,-2078,-1666,-597,-303,-1722,-2308.473905,-8394.607855,806.2381486,-315.7830168,67.81624237,1765.479864,59.4,64.76,60.38592036,65.00975958,0,0,-0.025210786,0.029412583
100,0,1.1,4,67.9389313,-512,-1040,-558,-342,-24,-1154,-2368,-8516,1046,-295,75,1513,59.4,64.76,60.36371483,65.03566603,0,0,-0.022205526,0.025906447
100,0,1.1,4,68.70229008,-420.8865672,-2365,525.7478291,-72.9104865,155.8064695,-407.2806448,-2569.358428,-8352.033168,1021.583815,-301.5,78.63363096,1344.818656,59.4,64.78065947,60.36,65.04,0,0.020659475,-0.003714834,0.004333973
100,0,1.1,4,69.46564885,-250,-3690,1124,182,295,382,-2730,-8136,980,-308,82,1200,59.4,64.88181966,60.36,65.04,0,0.101160187,0,0
100,0,1.1,4,70.22900763,-67.56425251,-3545.934531,683.796748,383.691256,401.3303318,1072.559632,-2599.962353,-8036.311405,952.8423172,-305.2494054,87.39063592,1046.220059,59.4,64.97094203,60.36,65.04,0,0.089122369,0,0
100,0,1.1,4,70.99236641,158,-3204,-66,591,509,1764,-2289.924706,-7960.266814,924.5748078,-296.9432552,93.25087352,899.7580743,59.4,65.04554432,60.35932617,65.04078613,0,0.074602285,-0.000673828,0.000786133
100,0,1.1,4,71.75572519,452,-2408,-706,872,668,2527,-1920,-7930,872,-283,96,797,59.4,65.08985501,60.31391602,65.09376465,0,0.044310691,-0.045410156,0.052978516
100,0,1.1,4,72.51908397,851.5548191,-2363.398017,-886.1509434,1140.812838,868.3762152,3083.066302,-1448,-8034,610,-222,93,746,59.4,65.12856202,60.3,65.11,0,0.038707016,-0.013916016,0.016235352
100,0,1.1,4,73.28244275,1098,-2350,-954,1389,1014,3583,-1424,-8144,362,-183,107,772,59.4,65.16828041,60.3,65.11,0,0.03971839,0,0
100,0,1.1,4,74.04580153,1080,-2725.643996,-871.0441989,1611.180833,1060.856796,4101.426538,-1310.883117,-8209.470588,437.5044144,-121.1113139,94.61386139,795.7192517,59.4,65.27745775,60.3,65.16796485,0,0.10917734,0,0.057964848
100,0,1.1,4,74.80916031,1062,-3336,-744,1801,1080,4626,-1216,-8240,600,-81,71,826,59.4,65.42718114,60.3,65.27632187,0,0.149723383,0,0.108357025
100,0,1.1,4,75.57251908,1066.688196,-3828.897989,-645.9558011,1952.592095,938.2972488,5193.909864,-1566,-8010,876,-88,43,889,59.4,65.57241325,60.3,65.34888265,0,0.145232114,0,0.07256078
100,0,1.1,4,76.33587786,1082,-4232,-592,2075,704,5733,-1536.972222,-7687.199552,1169.367347,-111.2100499,74,892.8572134,59.409375,65.61,60.3,65.449469,0.009375,0.03758675,0,0.100586347
100,0,1.1,4,77.09923664,1294,-4458,-684,2165,521,6166,-1490,-7486,1336,-148,105,896,59.45742188,65.61,60.3,65.5920356,0.048046875,0,0,0.1425666
100,0,1.1,4,77.86259542,1398,-4880,-996,2324,208,6792,-1458.520736,-7952,1320,-201.5936982,97,910.2336957,59.46,65.65,60.27727495,65.66448276,0.002578125,0.04,-0.022725046,0.072447159
100,0,1.1,4,78.6259542,1602,-5002,-968,2417,31,7200,-1422,-8418,1280,-250,89,935,59.46,65.68426013,60.23204016,65.69,0,0.034260126,-0.045234795,0.025517241
100,0,1.1,4,79.38931298,1768,-5516,-802,2570,-296,7743,-1358,-8172,1168,-270,103,974,59.46,65.57129452,60.18874188,65.69,0,-0.112965601,-0.043298277,0
100,0,1.1,4,80.15267176,1772,-5926,-700,2631,-473,8047,-1402.592593,-8134.778363,1231.883682,-317.3324863,121.0847448,1041.183107,59.47251781,65.54,60.18,65.69,0.01251781,-0.031294525,-0.008741882,0
100,0,1.1,4,80.91603053,1492,-6880,-1104,2730,-699,8424,-1485.407407,-8119.214295,1377.989586,-386.8117152,141.6738592,1125.68324,59.51770405,65.54,60.18,65.69,0.045186241,0,0,0
100,0,1.1,4,81.67938931,1013.376206,-7570.594467,-1498.41513,2805.783906,-710.5507169,8668.417439,-1530,-8078,1538,-453,162,1198,59.52,65.54,60.18,65.71046572,0.00229595,0,0,0.020465721
100,0,1.1,4,82.44274809,696,-8262,-1716,2874,-714,8882,-1388,-7510,1702,-506,181,1246,59.52067383,65.54133501,60.17932617,65.76638404,0.000673828,0.001335005,-0.000673828,0.055918321
100,0,1.1,4,83.20610687,898,-9220,-1578,2942,-591,9115,-1424,-7838,1428,-579,183,1347,59.56608398,65.64111084,60.13391602,65.86728188,0.045410156,0.099775835,-0.045410156,0.100897842
100,0,1.1,4,83.96946565,1042.596011,-10016.52401,-1153.133678,2956.969964,-360.5335137,9104.765396,-1468.286423,-7928.209618,1068.673145,-655.4127487,219.361186,1400.644545,59.58,65.71577579,60.12,65.93719086,0.013916016,0.074664946,-0.013916016,0.069908972
100,0,1.1,4,84.73282443,1159.74245,-10725.33857,-566.2335056,2964.923142,-31.55541926,9076.975237,-1540,-7962,848,-705,254,1454,59.58,65.7558336,60.12,65.97699138,0,0.040057812,0,0.039800526
100,0,1.1,4,85.49618321,1208,-11312,-270,2975,346,9036,-1760,-7446,846,-714,241,1553,59.60473031,65.80654275,60.09922654,66.00635757,0.024730307,0.050709154,-0.020773458,0.029366192
100,0,1.1,4,86.25954198,1044.908435,-11858.52591,-536.8385335,2996.00584,807.8418469,8920.543153,-1929.632774,-7590.666667,830.0659996,-747.9856038,259.6666667,1595.730522,59.64703639,65.83,60.04946061,66.03197016,0.04230608,0.023457249,-0.049765927,0.025612591
100,0,1.1,4,87.02290076,870,-12148,-876,3013,1314,8767,-2070.927498,-7859.333333,803.8107776,-802.1165393,294.3333333,1625.087483,59.68208371,65.83,60.00702219,66.04773907,0.035047325,0,-0.042438429,0.015768902
100,0,1.1,4,87.78625954,856,-11900,-978,3017,1780,8653,-2130,-8004,790,-845,313,1636,59.7225124,65.83,60,66.05,0.040428684,0,-0.007022186,0.002260933
100,0,1.1,4,88.54961832,1001.293045,-11550.29851,-871.4630454,2980.9324,2258.415751,8506.327848,-1884,-7726,1042,-866,297,1613,59.75953931,65.83,60,66.05,0.037026908,0,0,0
100,0,1.1,4,89.3129771,1246,-11332,-616,2903,2692,8306,-2246,-7830,1035.299582,-915.0316052,315.4051447,1635.354839,59.76,65.79191533,59.96735599,66.05,0.000460695,-0.038084673,-0.032644006,0
100,0,1.1,4,90.07633588,1448,-11488,0,2769,3016,7953,-2608,-7934,1014,-989,351,1676,59.76257813,65.76300781,59.94,66.05,0.002578125,-0.028907514,-0.027355994,0
100,0,1.1,4,90.83969466,2321.643418,-12082.20118,625.6816572,2530.977748,2945.413904,7593.056668,-2532,-7864,792,-1093,395,1718,59.810625,65.8190625,59.94,66.05,0.048046875,0.056054687,0,0
100,0,1.1,4,91.60305344,3646.109647,-12947.43393,1206.285273,2209.820237,2773.272253,7206.816934,-2353.322835,-7943.274719,788.8875278,-1172.474405,470.3768286,1732.334862,59.82,65.83,59.92444444,66.05,0.009375,0.0109375,-0.015555556,0
100,0,1.1,4,92.36641221,4382,-13390,1462,1873,2559,6704,-2044,-8158,788,-1228,566,1738,59.82,65.83,59.88205761,66.05,0,0,-0.042386831,0
100,0,1.1,4,93.12977099,4440.842346,-12864.90669,933.6256096,1513.669296,2224.924282,5947.999355,-1179.299213,-9949.725281,1145,-1252.37585,701.148855,1737,59.82,65.83,59.88,66.015,0,0,-0.002057613,-0.035
100,0,1.1,4,93.89312977,4469.593901,-11733.14671,-49.4154475,1136.001317,1788.979166,4906.575911,-500,-11606,1502,-1277,788,1736,59.82257813,65.8279205,59.87742188,65.98,0.002578125,-0.002079498,-0.002578125,-0.035
100,0,1.1,4,94.65648855,4532,-10660,-584,824,1454,3646,-510.045153,-11360.56,1398.624,-1337.856819,784.152,1789.914182,59.870625,65.78048588,59.829375,65.98,0.048046875,-0.047434625,-0.048046875,0
100,0,1.1,4,95.41984733,5419.120454,-9696.479978,-591.3288108,606.6410156,1292.36909,1761.517164,-535.4154591,-10775.28,1152.112,-1436.673236,774.976,1932.142545,59.88,65.7370291,59.82,65.98,0.009375,-0.043456777,-0.009375,0
100,0,1.1,4,96.18320611,6256,-9144,-594,421,1135,-110,-568.9631886,-10076.72,857.888,-1557.161242,764.024,2133.413818,59.88,65.69543702,59.82,65.98,0,-0.041592082,0,0
100,0,1.1,4,96.94656489,5808,-10558,-568,243,859,-1179,-603.5406121,-9491.44,611.376,-1683.032833,754.848,2364.456727,59.91264401,65.61630093,59.78735599,65.98,0.032644006,-0.079136091,-0.032644006,0
100,0,1.1,4,97.70992366,3734,-29934,-2564,-252,761,-1755,-632,-9246,508,-1798,751,2596,59.94,65.52352153,59.76,65.98267861,0.027355994,-0.092779393,-0.027355994,0.002678608
100,0,1.1,4,98.47328244,6207,-20688.79629,-1914.156971,-342.0210843,821.5,-3144.89133,-658.7544484,-9627.422735,886.2384501,-1899.483444,759.8393443,2878.949769,59.94,65.44609328,59.76,66.03539589,0,-0.077428256,0,0.052717281
100,0,1.1,4,99.23664122,8680,-10622,-736,-373,882,-4160,-674,-10312,1412,-2006,783,3164,59.94,65.34111157,59.74608398,66.05,0,-0.104981706,-0.013916016,0.014604112
100,0,1.1,4,100,2535,-9313.203714,780.1569714,-50.5,-136,-3389,-402,-10933.02691,1704.76155,-2140.92071,910.0235366,3346.573815,59.94,65.19540075,59.70067383,66.05,0,-0.145710821,-0.045410156,0
100,0,1.1,1,0,-3610,-8826,1768,272,-1154,-2618,-130,-11718,1850,-2259,1056,3540,59.94,65.01949082,59.7,66.05,0,-0.175909931,-0.000673828,0
100,0,1.1,1,0.8,-3312.472508,-9720.444444,-151.037037,81.44444444,-644.2962963,-3063.148576,-207,-12918.14091,1803,-2338.117251,1097.964128,3875.263965,59.94,64.8574793,59.7,66.04422959,0,-0.162011525,0,-0.005770405
100,0,1.1,1,1.6,-2512.27835,-11381.55556,-3714.962963,-272.4444444,302.2962963,-3952.519374,-284,-14502,1756,-2377,1144,4268,59.94,64.73208175,59.7,65.98980256,0,-0.125397549,0,-0.05442703
100,0,1.1,1,2.4,-1348,-12276,-5634,-463,812,-4617,98,-16572,2338,-2330,1313,4630,59.94,64.63268919,59.7,66.00000407,0,-0.099392555,0,0.010201506
100,0,1.1,1,3.2,2527.031572,-10536.42188,169,-104.5,9,-4870.950798,1066.123911,-15725,2071.280029,-2241.444023,1332.953189,4967.654612,59.94,64.55571246,59.7,66.04930185,0,-0.076976728,0,0.049297781
100,0,1.1,1,4,5752,-8724,5972,254,-794,-5073,1782,-14878,1740,-2181,1350,5267,59.94,64.51206009,59.66735599,66.01191533,0,-0.043652371,-0.032644006,-0.037386526
100,0,1.1,1,4.8,4408,-8640,4186,-1105,-658,-5296,457.6498727,-15096.30643,1620.182436,-2225.772865,1437.653462,5552.436688,59.94,64.46950864,59.64,65.98,0,-0.042551448,-0.027355994,-0.031915327
100,0,1.1,1,5.6,2828.386399,-7276.020642,-30.10728521,-1040.050992,-194.5120275,-5651.372826,-2456.10034,-15601.15047,1524.439943,-2326.477641,1613.77382,5836.332611,59.94,64.40379139,59.64,65.98,0,-0.065717252,0,0
100,0,1.1,1,6.4,1900,-5984,-3092,-903,172,-5882,-5370.300382,-16167.41928,1460.977479,-2432.693596,1840.507268,6054.062229,59.94,64.33062752,59.64,65.98,0,-0.073163869,0,0
100,0,1.1,1,7.2,3549,-6661.810828,-2772.232236,-635.9457456,32.5,-5531.335457,-6696,-16570,1438,-2494,2080,6141,59.94,64.27,59.64,65.98,0,-0.060627524,0,0
100,0,1.1,1,8,5198,-7454,-2126,-399,-107,-4963,-6697.44983,-16815.42476,2296.484574,-2513.511179,2345.31171,5967.634518,59.90502058,64.21976877,59.64,65.98,-0.034979424,-0.050231227,0,0
100,0,1.1,2,8.8,4799.777778,-7651.617019,-986.4760254,-324.5983933,-92.22222222,-4562.045957,-6698,-16938,3538,-2522,2680,5567,59.88,64.20300781,59.64,65.98300781,-0.025020576,-0.01676096,0,0.003007813
100,0,1.1,2,9.6,4060.222222,-7782.062914,445.7619873,-274.4103078,-64.77777778,-4177.542021,-4293,-14516.219,4332.515426,-2358.07804,3262.5019,4593.393918,59.88,64.2590625,59.64,66.0390625,0,0.056054687,0,0.056054687
100,0,1.1,2,10.4,3662,-7838,1150,-256,-50,-3731,-1888,-10432,4744,-2060,3659,3383,59.86613083,64.27,59.64,66.05,-0.013869173,0.0109375,0,0.0109375
100,0,1.1,2,11.2,3696,-7848,912,-344,-119,-3130,-2466,-6769.344989,2881.77533,-1753.611615,3350.799555,2343.971564,59.82,64.27,59.64,66.05,-0.046130827,0,0,0
100,0,1.1,2,12,3913.423038,-7886.060821,371.0135795,-257.4650113,-99.5,-2701.183816,-3044,-3632,174,-1420,2662,1769,59.77597391,64.30388962,59.64,66.05,-0.044026091,0.033889618,0,0
100,0,1.1,2,12.8,4122,-7940,-18,-124,-80,-2348,-1844,-1834,-1226,-1095,1346,2275,59.76,64.35486452,59.64,66.05645996,-0.015973909,0.050974904,0,0.006459961
100,0,1.1,2,13.6,4144,-7988,436,-40,-92,-2049,-1356,990,-2230,-588,754,2106,59.76,64.40547955,59.64,66.11354004,0,0.050615031,0,0.057080078
100,0,1.1,2,14.4,3318,-8200,1176,-51,-131,-1569,-880.2067367,775.3490996,-1920.64182,-48.97504776,433.0841563,1515.428525,59.76,64.38647462,59.64,66.12,0,-0.01900493,0,0.006459961
100,0,1.1,2,15.2,3236,-7970,944,-67,-116,-1314,-445.8811461,325.1426436,-1205.950307,486.0659227,196.930967,502.6716374,59.76,64.34062414,59.64,66.12,0,-0.04585048,0,0
100,0,1.1,2,16,2953.035942,-8000.074074,859.4808374,-37.44444444,-117.037037,-1071.985482,-256,-70,-406,902,105,-559,59.76,64.34,59.64,66.18850811,0,-0.000624143,0,0.068508107
100,0,1.1,2,16.8,2497.511799,-8055.925926,803.9626409,17.44444444,-118.962963,-846.5698791,-504,-302,460,1155,180,-1581,59.76,64.33836965,59.64,66.29683387,0,-0.001630353,0,0.108325767
100,0,1.1,2,17.6,2094,-8086,784,47,-120,-689,-860,-412,428,1341,251,-2198,59.76,64.31596934,59.64,66.37858285,0,-0.022400312,0,0.081748976
100,0,1.1,2,18.4,1830,-7978,1040,30,-113,-610,-736.0740741,-698.1858245,-113.5719618,1639.714155,105.0587047,-2908.30365,59.76,64.28538804,59.64,66.46322963,0,-0.030581295,0,0.084646783
100,0,1.1,2,19.2,1412,-8142,912,5,-112,-519,-505.9259259,-1133.943703,-1063.785981,2005.982145,-218.8825907,-3650.85463,59.76,64.27,59.64,66.57,0,-0.01538804,0,0.106770367
100,0,1.1,2,20,1176.51446,-8026,934.1942278,11.5,-101.5833333,-485.5357412,-382,-1554,-1570,2326,-550,-4286,59.79785874,64.30419499,59.60214126,66.74419097,0.037858742,0.034194993,-0.037858742,0.17419097
100,0,1.1,2,20.8,1010,-7910,986,18,-92,-466,-738,-1896,-1500,2551,-836,-4745,59.82,64.35169775,59.58,66.91257501,0.022141258,0.047502752,-0.022141258,0.168384043
100,0,1.1,2,21.6,892,-8264,1100,2,-111,-454,-1048,-2452,-1380,2948,-1049,-5340,59.82,64.39001423,59.58,67.03806242,0,0.038316488,0,0.125487406
100,0,1.1,2,22.4,714,-8104,1260,-38,-118,-511,-1320.019392,-2900.213506,-1075.454111,3186.180755,-1046.127155,-5663.081453,59.82,64.45926665,59.58,67.18457379,0,0.069252418,0,0.14651137
100,0,1.1,2,23.2,418,-8142,1342,-61,-116,-534,-1567.567883,-3308.807497,-660.5721045,3369.318298,-1038.1432,-5902.327852,59.82,64.55,59.58,67.32,0,0.090733349,0,0.135426211
100,0,1.1,2,24,454.6156228,-8136,1320.359706,-87.48133211,-119.622449,-583.6108482,-1766,-3782,-394,3528,-1026,-6164,59.82,64.59639281,59.58731014,67.37741607,0,0.046392808,0.00731014,0.057416068
100,0,1.1,2,24.8,548,-8118,1256,-119,-126,-661,-1921.104281,-4463.857603,-297.5399345,3671.393949,-962.7577067,-6521.709553,59.82,64.63595916,59.60570751,67.41621791,0,0.03956635,0.018397372,0.038801844
100,0,1.1,2,25.6,830,-7998,850,-162,-132,-787,-2050.213825,-5246.450028,-229.6588561,3798.132627,-859.007991,-6908.104469,59.82,64.67404084,59.62989254,67.45254597,0,0.038081684,0.024185034,0.036328063
100,0,1.1,2,26.4,1382.564973,-7749.885993,695.093361,-327.7402386,-159.7722772,-889.2044667,-2146,-5856,-204,3923,-802,-7218,59.80101563,64.71584258,59.66486335,67.49956158,-0.018984375,0.041801739,0.034970802,0.047015604
100,0,1.1,2,27.2,1764,-7576,632,-462,-183,-986,-2196.724712,-6286.28171,-313.6444867,4056.460083,-798.3614801,-7417.7597,59.76,64.76,59.7,67.55,-0.041015625,0.044157419,0.035136653,0.050438421
100,0,1.1,2,28,1597.037037,-7664.296466,789.5445232,-451.3703704,-173.6666667,-1112.672357,-2260,-6506,-512,4176,-797,-7586,59.76,64.81136377,59.7,67.60870145,0,0.051363773,0,0.058701454
100,0,1.1,2,28.8,1286.962963,-7855.259598,1094.200158,-431.6296296,-156.3333333,-1241.225068,-2534,-6512,-714,4263,-866,-7752,59.76,64.82354004,59.70382324,67.6180163,0,0.012176267,0.003823242,0.00931485
100,0,1.1,2,29.6,1120,-8038,1294,-421,-147,-1300,-2696,-6662,-848,4392,-1003,-7978,59.76,64.76645996,59.74703613,67.49682065,0,-0.057080078,0.043212891,-0.121195652
100,0,1.1,2,30.4,1294,-8172,1336,-444,-172,-1296,-2550.088235,-7253.488264,-689.9846416,4460.11261,-1088.871543,-8124.941928,59.7355957,64.76,59.78662298,67.43916848,-0.024404297,-0.006459961,0.039586844,-0.05765217
100,0,1.1,2,31.2,1756,-8078,932,-465,-225,-1319,-2368,-8016,-436,4511,-1164,-8224,59.7,64.75937586,59.82350136,67.39256439,-0.035595703,-0.000624143,0.036878387,-0.046604097
100,0,1.1,2,32,1806.923573,-7948.592393,798.213781,-468.0529101,-231.3908025,-1305.733217,-2318,-8524,-254,4556,-1249,-8275,59.7,64.71352538,59.8564764,67.25518699,0,-0.04585048,0.032975033,-0.1373774
100,0,1.1,2,32.8,1828.246986,-7812.851752,712.3291127,-469.4306064,-234.0482717,-1274.021989,-2198.092593,-9308.822065,-255.7678964,4581.862851,-1416.298271,-8359.189805,59.69446289,64.69,59.8908212,67.15063645,-0.005537109,-0.023525377,0.034344807,-0.104550533
100,0,1.1,2,33.6,1872,-7750,682,-472,-240,-1236,-2044.157407,-10187.94249,-261.0913483,4601.530674,-1646.484483,-8453.983791,59.64553711,64.69,59.92865105,67.10336803,-0.048925781,0,0.037829844,-0.047268425
100,0,1.1,2,34.4,2193.077767,-8039.910641,942,-481.7879624,-311.4834463,-1175.988227,-1968,-10686,-270,4623,-1870,-8499,59.64,64.69,59.96429847,67.05900074,-0.005537109,0,0.035647424,-0.044367284
100,0,1.1,2,35.2,2478,-8404,1202,-497,-387,-1130,-2138.653184,-10775.65838,-342.5422994,4657.258897,-2085.587374,-8465.02681,59.63959699,64.69069815,60.00552213,67.01518695,-0.000403012,0.000698148,0.041223656,-0.043813792
100,0,1.1,2,36,2075.090607,-8540.973675,1195.084356,-511.8965175,-400.2351595,-1122.332275,-2440,-10862,-452,4679,-2248,-8400,59.60601262,64.73999593,60.09239801,66.95665084,-0.033584368,0.049297781,0.086875882,-0.058536115
100,0,1.1,2,36.8,1322.84788,-8639.931282,1175.724268,-529.7025708,-407.9096944,-1117.610582,-2726,-11144,-532,4678,-2312,-8322,59.56334215,64.76,60.12,66.95658776,-0.042670466,0.020004071,0.027601991,-6.31E-05
100,0,1.1,2,37.6,906,-8678,1146,-555,-416,-1116,-3034,-11584,-546,4642,-2334,-8127,59.52340729,64.76,60.12,67.06514624,-0.039934867,0,0,0.108558483
100,0,1.1,2,38.4,892.7409052,-8631.851852,971.6090658,-614.2307466,-425.8450816,-1161.827904,-3134,-11782,-398,4463,-2246,-7949,59.52,64.76463058,60.13597391,67.13438907,-0.003407287,0.004630578,0.015973909,0.069242825
100,0,1.1,2,39.2,886.3091864,-8546.148148,683.5823107,-701.747895,-436.1632816,-1270.100253,-3590,-12556,-152,3896,-2075,-7532,59.52,64.78395162,60.18,67.17,0,0.019321041,0.044026091,0.035610935
100,0,1.1,2,40,874,-8500,532,-774,-449,-1397,-3382,-14661.58487,-259.2271032,3342.479642,-2147.253647,-6969.317739,59.52,64.81194385,60.21734176,67.13059783,0,0.027992228,0.037341765,-0.039402174
100,0,1.1,2,40.8,766.3089314,-8572.534882,617.3125,-816.9639413,-472.15625,-1543.816365,-3174,-16256,-490,2835,-2286,-6239,59.510625,64.84454298,60.25593123,67.05776019,-0.009375,0.032599132,0.038589465,-0.072837632
100,0,1.1,2,41.6,534.8066851,-8735.926352,805,-850.8847421,-503.8888889,-1727.235874,-4204,-16268,-882,2422,-2454,-5164,59.46257813,64.89133088,60.29440126,66.95700655,-0.048046875,0.046787905,0.03847003,-0.100753647
100,0,1.1,2,42.4,258.4010963,-8908.854646,992.6875,-883.6131718,-531.9270833,-1926.537446,-4120.148148,-17056.66405,-998.4005022,1782.719328,-2410.397569,-3979.42352,59.46,64.93936944,60.31661962,66.8725672,-0.002578125,0.048038558,0.022218357,-0.084439352
100,0,1.1,2,43.2,16,-9010,1078,-923,-544,-2121,-3910.518519,-18998.56554,-1091.508198,933.1162956,-2281.627776,-2731.190325,59.46,64.97,60.3316853,66.78909843,0,0.030630558,0.015065688,-0.083468766
100,0,1.1,2,44,-174,-9036,498,-976,-537,-2309,-3638,-21515.47717,-1162.272542,18.81687443,-2070.746873,-1436.165894,59.46,64.97,60.34729831,66.73130905,0,0,0.015613004,-0.057789376
100,0,1.1,2,44.8,434,-9504,536,-1066,-522,-2613,-3365.481481,-24029.17166,-1211.642988,-814.5529633,-1780.811109,-111.2157097,59.46,64.97,60.37130266,66.72,0,0,0.024004355,-0.011309053
100,0,1.1,2,45.6,805.7077367,-9724.048993,746.5736273,-1094.341735,-585.9923396,-2865.777389,-3155.851852,-25961.4217,-1240.568989,-1421.367245,-1414.876734,1226.794749,59.46,64.97,60.4081615,66.72,0,0,0.036858839,0
100,0,1.1,2,46.4,1090.409424,-9878.005924,1076.397925,-1110.913693,-706.2069014,-3093.372113,-3072,-26734,-1250,-1656,-976,2561,59.46,64.94152832,60.45713438,66.67513916,0,-0.02847168,0.048972881,-0.04486084
100,0,1.1,2,47.2,1204,-10146,1248,-1135,-775,-3305,-3360,-472,4052,347,126,3913,59.45932617,64.9,60.49,66.56059328,-0.000673828,-0.04152832,0.032865617,-0.114545876
100,0,1.1,3,48,34,-11438.59203,1084,-1203.567881,-778.9662576,-3488.262746,-5300,-8422,4482,-132,1588,3764,59.41391602,64.9,60.49,66.4655958,-0.045410156,0,0,-0.094997485
100,0,1.1,3,48.8,-1136,-12708,920,-1255,-783,-3684,-386.6632638,-5910,4191.417593,-44,3152.39552,2732.274377,59.4,64.9,60.49,66.37438974,-0.013916016,0,0,-0.091206058
100,0,1.1,3,49.6,-1078.444444,-12920.22904,1142.962963,-1218.703704,-908.1123444,-3971.607328,5706,-3398,3400,44,4043,1820,59.4,64.9,60.49,66.28931139,0,0,0,-0.085078355
100,0,1.1,3,50.4,-971.5555556,-13029.33301,1557.037037,-1151.296296,-1132.778394,-4311.882148,7796.663264,-6147,-3596.417593,-1324.5,2833.455972,2070.198032,59.4,64.9,60.5144043,66.24010626,0,0,0.024404297,-0.049205125
100,0,1.1,3,51.2,-914,-13260,1780,-1115,-1253,-4616,8708,-8896,-10092,-2693,1126,2602,59.4,64.9,60.54940159,66.19278045,0,0,0.034997291,-0.047325814
100,0,1.1,3,52,-1956,-14514,1388,-1127,-1218,-4844,4948.606284,-8375,-5904,-1488.5,121.044028,3721.206847,59.4,64.9,60.50714635,66.06745916,0,0,-0.042255241,-0.125321289
100,0,1.1,3,52.8,-1698.925278,-13253,1078.415844,-1074.5,-1375.5,-5120.792341,182,-7854,-1716,-284,-386,4615,59.4,64.9,60.49,65.92561888,0,0,-0.017146346,-0.141840282
100,0,1.1,3,53.6,-1172,-11992,698,-1022,-1533,-5391,-1709.864139,-8202.75,-1763.009534,-553.375,-306.9375,4691.470898,59.4,64.9,60.49,65.78695848,0,0,0,-0.138660393
100,0,1.1,3,54.4,-512.3115457,-12337,-416.8209459,-1093,-1496.5,-5579.243559,-3253.212568,-8970,-1874.525424,-1146,-133,4724.291912,59.4,64.88039487,60.49,65.6549823,0,-0.019605129,0,-0.131976181
100,0,1.1,3,55.2,560,-12682,-1276,-1164,-1460,-5797,-4292.954713,-9737.25,-2006.278602,-1738.625,40.9375,4755.716971,59.4,64.82243436,60.49,65.52746356,0,-0.057960513,0,-0.127518743
100,0,1.1,3,56,3092,-11930,754,-965,-1678,-6247,-4674,-10086,-2114,-2008,120,4828,59.4,64.67154895,60.49,65.40694448,0,-0.150885406,0,-0.120519084
100,0,1.1,3,56.8,6284.762624,-14914,2576.13386,-1212.001422,-1696.506689,-6220.274672,-510,-6628,-2186,-1443,-276,5152,59.39742188,64.62,60.49149995,65.27116457,-0.002578125,-0.051548952,0.001499949,-0.135779904
100,0,1.1,3,57.6,8206,-17898,3682,-1518,-1714,-6147,-2160,-7792,140,-803,-195,5002,59.3755957,64.62,60.50591366,65.10092876,-0.021826172,0,0.01441371,-0.170235809
100,0,1.1,4,58.4,6957.317531,-16289.00594,3896.093555,-1622.498578,-2094.805566,-5650.235262,-4246.926471,-7786,2332.793125,-1029.01419,21.14361702,4483.427031,59.349375,64.62,60.52953519,64.93299028,-0.026220703,0,0.023621528,-0.167938485
100,0,1.1,4,59.2,4458,-13412,4016,-1668,-2663,-4798,-5504,-7780,3528,-1298,183,3850,59.34,64.62158625,60.55595198,64.81038502,-0.009375,0.001586247,0.026416792,-0.122605261
100,0,1.1,4,60,1042,-10580,4104,-1621,-3032,-3848,-4049.779111,-7859.025581,2431.258677,-1371.48581,165.5,3448.650138,59.34,64.66085878,60.59773032,64.72772064,0,0.039272533,0.041778337,-0.08266438
100,0,1.1,4,60.8,401.5894178,-5512.619414,3729.263413,-1587.943789,-3723.106197,-2304.077603,-2446,-8062,512,-1402,148,3103,59.34,64.7102129,60.61,64.6665313,0,0.049354124,0.012269685,-0.061189338
100,0,1.1,4,61.6,180,-2106,2764,-1539,-4194,-1296,-2264,-8692,-1262,-1093,160,2783,59.34,64.75789396,60.61,64.6217895,0,0.047681059,0,-0.044741797
100,0,1.1,4,62.4,5064,-4220,-266,-1301,-2367,-2550,-2716,-7912,-1454,-838,141,2650,59.34,64.76,60.58264401,64.67247674,0,0.002106037,-0.027355994,0.050687234
100,0,1.1,4,63.2,3357.115428,-3298.669511,-808.017934,-933.2821643,-1374.274922,-2114.706988,-2797.559906,-8253,-945.4994882,-632.3341036,102.1462656,2436.614263,59.34,64.76078613,60.55,64.76579297,0,0.000786133,-0.032644006,0.093316237
100,0,1.1,4,64,1146,-2168,-994,-565,-739,-1374,-2882,-8594,-114,-483,75,2163,59.34,64.81376465,60.55,64.81988412,0,0.052978516,0,0.054091147
100,0,1.1,4,64.8,214.8845716,-1800.330489,-96.55,-322.062377,-339.0551105,-769.5926802,-3444,-8454,514,-408,91,1828,59.34,64.83,60.55,64.83,0,0.016235352,0,0.010115881
100,0,1.1,4,65.6,-212,-1642,866,-104,-95,-103,-3413.488599,-8469,619.5330013,-335.02977,99.92487047,1473.643817,59.34,64.83,60.55,64.83,0,0,0,0
100,0,1.1,4,66.4,55.47504672,-2229,968.55,132.3322269,7.914313969,772.196157,-3328,-8484,710,-258,104,1153,59.34,64.85438904,60.52853613,64.85279255,0,0.024389036,-0.021463868,0.022792553
100,0,1.1,4,67.2,406,-2816,1006,370,100,1641,-2940,-8056,996,-167,99,922,59.34,64.90477351,60.4860375,64.9063408,0,0.050384474,-0.042498628,0.053548246
100,0,1.1,4,68,525.6512872,-2579.684131,494.7407407,602.485256,261.2523262,2307.465752,-2819.36837,-8223,1137.475841,-175,85.83064516,720.9363807,59.34,64.95854914,60.43853513,65.0133575,0,0.053775629,-0.047502371,0.107016705
100,0,1.1,4,68.8,607.0138101,-2111.368261,-454.7407407,834.4976864,470.0462529,2894.988808,-2688,-8390,1264,-183,76,552,59.34,65.02231054,60.40657479,65.03566603,0,0.063761401,-0.03196034,0.022308522
100,0,1.1,4,69.6,732,-1772,-966,1077,698,3453,-2106,-7920,1454,-170,99,430,59.34,65.09463339,60.38204076,65.00975958,0,0.072322855,-0.024534034,-0.025906447
100,0,1.1,4,70.4,1089.121696,-1629.355353,-869.7369915,1339.139349,968.733201,3978.377662,-1489.648008,-8130,1144,-161.2376918,123.8251979,371.482808,59.37,65.17921523,60.36490544,64.980347,0.03,0.084581833,-0.017135322,-0.029412583
100,0,1.1,4,71.2,1468,-1564,-716,1611,1220,4505,-1140,-8340,834,-151,138,346,59.4,65.28163637,60.36,64.97153877,0.03,0.102421142,-0.004905436,-0.008808221
100,0,1.1,4,72,1632,-2132,-608,1885,1375,5100,-1198.580247,-7953,872.2864078,-119.9695946,91,401.4691176,59.4,65.40153843,60.36,65.01171789,0,0.119902064,0,0.040179117
100,0,1.1,4,72.8,1596,-2628,-444,2047,1361,5508,-1270,-7566,966,-96,44,473,59.4,65.56620232,60.36,65.07644308,0,0.164663887,0,0.064725184
100,0,1.1,4,73.6,1616,-3380,-164,2284,1150,6179,-1292.419753,-7809.859956,1339.713592,-121.4513514,73.52061856,495.2049564,59.4,65.75187788,60.36,65.1661179,0,0.185675555,0,0.089674825
100,0,1.1,4,74.4,1618,-3686,-70,2422,914,6623,-1302,-8158,1658,-169,113,516,59.4,65.76,60.33727495,65.21715368,0,0.008122125,-0.022725046,0.051035778
100,0,1.1,4,75.2,1814,-4406,-184,2678,320,7285,-1292.106937,-8371.140044,1563.738779,-225.2956366,128.9766139,555.2291517,59.4,65.75825991,60.29204016,65.28116816,0,-0.001740086,-0.045234795,0.064014485
100,0,1.1,4,76,2018,-4572,96,2792,27,7723,-1268,-8480,1456,-281,141,608,59.4,65.71586638,60.24874188,65.47238025,0,-0.042393538,-0.043298277,0.191212086
100,0,1.1,4,76.8,1922.6874,-5041.607435,92.67039744,2919.031815,-304.5904512,8209.701608,-1159.958037,-8296.444444,1439.649482,-315.3549178,154.3752904,670.1961394,59.4,65.66076199,60.24,65.56760972,0,-0.05510439,-0.008741882,0.095229474
100,0,1.1,4,77.6,1748,-5724,84,3056,-497,8622,-989.0901298,-7955.555556,1431.491263,-343.7018035,166.6320897,745.4675476,59.4,65.61063356,60.24,65.60563274,0,-0.050128425,0,0.03802302
100,0,1.1,4,78.4,1531.515851,-6435.347609,-192.6333942,3219.515727,-479.8125,8901.583077,-900,-7772,1412,-383,172,836,59.43264401,65.61,60.24,65.66255946,0.032644006,-0.000633562,0,0.05692672
100,0,1.1,4,79.2,1261.625201,-7231.206208,-787.3407949,3402.397693,-427,9141.823674,-1258,-8172,1228,-460,117,962,59.46,65.61,60.2354081,65.69,0.027355994,0,-0.004591899,0.027440538
100,0,1.1,4,80,1031.42195,-8109.461703,-1379.377798,3566.830813,-336.6875,9327.652433,-1280.252686,-7995.185185,1271.037037,-492.920961,127.7329843,1035.467943,59.46,65.61,60.14503562,65.69,0,0,-0.090372481,0
100,0,1.1,4,80.8,934,-9068,-1648,3675,-207,9444,-1288.088134,-7666.814815,1350.962963,-514.785054,150.4659686,1092.103735,59.46,65.61,60.12,65.70623535,0,0,-0.02503562,0.016235352
100,0,1.1,4,81.6,1284,-10214,-568,3724,315,9498,-1310,-7490,1394,-549,171,1162,59.46,65.61,60.12,65.75921387,0,0,0,0.052978516
100,0,1.1,4,82.4,1498,-11336,38,3687,743,9398,-1606,-7576,1170,-636,184,1272,59.48776958,65.61,60.0844043,65.71847168,0.027769581,0,-0.035595703,-0.040742188
100,0,1.1,4,83.2,1748,-12648,296,3573,1403,9218,-1820,-8110,1178,-692,208,1315,59.53033359,65.61592593,60.06,65.69518519,0.042564009,0.005925926,-0.024404297,-0.023286495
100,0,1.1,4,84,2034,-13204,18,3489,1853,9081,-1778,-8551.792453,1230.184116,-711.4434413,231.5563137,1349.019696,59.5630121,65.67491084,60.06,65.74679698,0.032678509,0.058984911,0,0.051611797
100,0,1.1,4,84.8,2276.430051,-12594.67265,-802.7330589,3364.570889,2507.339473,8902.637526,-1736,-8782,1276,-729,245,1378,59.59952594,65.69,60.04999143,65.76,0.036513839,0.015089163,-0.01000857,0.013203018
100,0,1.1,4,85.6,2550,-11828,-1432,3208,2992,8697,-1752,-8343,1267.007752,-762.5893198,245.4968457,1399.599602,59.63729082,65.69,60.00387083,65.76,0.037764882,0,-0.046120601,0
100,0,1.1,4,86.4,2980.049375,-11545.32735,-1294.560086,3031.179727,3122.231264,8453.295631,-1768,-7904,1244,-813,246,1425,59.66309942,65.69,59.96010621,65.84161001,0.025808597,0,-0.043764616,0.081610014
100,0,1.1,4,87.2,3506,-11420,-988,2799,3174,8226,-1762,-7904.439597,1123.992248,-915.424074,272.4707133,1477.600532,59.68549072,65.69,59.94,65.9065625,0.022391301,0,-0.020106213,0.064952486
100,0,1.1,4,88,4215.528371,-12625,-193.4399142,2379.052961,2915.644737,8093.056629,-1756,-7906,1018,-1015,318,1555,59.69865615,65.69,59.94,65.8425,0.013165437,0,0,-0.0640625
100,0,1.1,4,88.8,4680,-13830,432,1938,2460,7938,-1876,-8240,1068,-1054,360,1665,59.7,65.69,59.93505394,65.83382658,0.001343846,0,-0.004946061,-0.008673417
100,0,1.1,4,89.6,4699.504367,-13370.45815,251.5517751,1604.12637,2033.880016,7546.888256,-1618,-7998,972,-1113,403,1704,59.7,65.69,59.91264401,65.85382019,0,0,-0.022409933,0.019993603
100,0,1.1,4,90.4,4718,-12458,-6,1430,1578,6951,-1431.077367,-7829.066959,985.1501597,-1168.523079,446.6433648,1745.058665,59.73264401,65.69,59.8884022,65.88394564,0.032644006,0,-0.024241807,0.030125453
100,0,1.1,4,91.2,4932.697778,-10898.54185,-122.4826459,1478,1071.538501,6186.35841,-1338,-7746,1014,-1229,512,1806,59.76,65.68755137,59.88,65.91694061,0.027355994,-0.00244863,-0.008402198,0.032994971
100,0,1.1,4,92,5130,-9792,-244,1526,642,5190,-1832,-7930,1066,-1309,707,1975,59.76,65.63267123,59.88,65.96189508,0,-0.054880137,0,0.044954466
100,0,1.1,4,92.8,5097.851852,-10209.40741,-504.8937934,1353.14888,348.5953933,3803.892574,-2850,-9682,1736,-1262,995,2024,59.77714635,65.58445474,59.88,66.01066477,0.017146346,-0.048216492,0,0.048769698
100,0,1.1,4,93.6,5038.148148,-10984.59259,-850.0476865,965.1866485,113.3594614,2134.184624,-1334,-10752.50123,1717.203931,-1290.078595,940.8902439,2058.615235,59.81940159,65.54420702,59.88,66.0495368,0.042255241,-0.04024772,0,0.038872025
100,0,1.1,4,94.4,5006,-11402,-1116,558,3,626,182,-11256,1664,-1349,842,2105,59.82,65.50227777,59.88,66.05,0.000598412,-0.04192925,0,0.000463201
100,0,1.1,4,95.2,5277.703704,-10872.07407,-1225.125706,193.2475788,-14.28594468,-709.4980235,-240,-10087,868.7960688,-1441.833557,711.6097561,2288.578443,59.82071356,65.45502184,59.87505394,66.05,0.000713558,-0.047255931,-0.004946061,0
100,0,1.1,4,96,5782.296296,-9887.925926,-1301.008547,-194.5026474,-23.55947107,-1927.852706,-662,-8918,108,-1561,626,2543,59.83190632,65.4039032,59.8284022,66.05,0.011192764,-0.051118643,-0.04665174,0
100,0,1.1,4,96.8,6054,-9358,-1482,-600,-38,-2684,-591.5884719,-9304.430884,295.3928127,-1697.703508,659.8153054,2743.365471,59.85259645,65.34459468,59.82,66.05,0.020690125,-0.059308516,-0.008402198,0
100,0,1.1,4,97.6,-360,-32768,-5118,-1034,-74,-2967,-435.399166,-10172.63955,725.0078475,-1841.950533,736.9639441,2937.478979,59.87748436,65.2688047,59.82,66.05,0.024887916,-0.075789976,0,0
100,0,1.1,4,98.4,1658,-17284,-763,-354,-119.9017165,-3778.206956,-276,-11086,1198,-1938,821,3145,59.91991675,65.14517889,59.80904583,66.05,0.042432384,-0.123625812,-0.01095417,0
100,0,1.1,4,99.2,3676,-1800,3592,326,-211,-4396,-126.5756002,-11975.60952,1813.099752,-1975.266496,907.0820582,3375.848094,59.93868105,64.99678285,59.78323399,66.05,0.018764303,-0.148396037,-0.025811837,0
100,0,1.1,4,100,1882,-7058,3510,-375,-854,-3389,0,-12808,2214,-2009,996,3629,59.92039284,64.8427547,59.76243092,66.05,-0.018288215,-0.154028154,-0.020803072,0
100,0,1.1,1,0,-6748,-8524,4262,-92,-2107,-1544,56.52940247,-13319.67038,2192.740741,-2072.645284,1071.542345,3905.882924,59.89477712,64.69014475,59.76,66.07000407,-0.025615713,-0.152609948,-0.002430921,0.020004071
100,0,1.1,1,0.847457627,-6722,-302,-4476,-657,-2006,-2087,95.86956646,-13742.48103,2153.259259,-2152.754336,1142.860539,4204.731032,59.88015266,64.56081155,59.76,66.11930185,-0.014624466,-0.129333207,0,0.049297781
100,0,1.1,1,1.694915254,-5454.131872,-5988.286872,-7479.034865,-587.3119565,-208.050959,-2925.70709,186,-14436,2132,-2222,1220,4524,59.88,64.46751846,59.7244043,66.12,-0.000152656,-0.093293083,-0.035595703,0.000698148
100,0,1.1,1,2.542372881,-2822,-12420,-8668,-444,1503,-3550,1316,-16474,2186,-2269,1311,4879,59.88,64.38489102,59.7,66.12,0,-0.082627441,-0.024404297,0
100,0,1.1,1,3.389830508,2680.708389,-13642.71313,490,-168.6880435,1080.007863,-3665.008289,1976.076784,-15493,1828.75395,-2196.114754,1314.021409,5236.221664,59.88,64.30334951,59.7,66.12,0,-0.081541517,0,0
100,0,1.1,1,4.237288136,6796,-14120,9648,33,520,-3761,2282,-14512,1366,-2098,1317,5529,59.88,64.21344033,59.7,66.09785156,0,-0.089909179,0,-0.022148438
100,0,1.1,1,5.084745763,6060.408413,-14015.37199,5799.555556,-241.037037,256.6526884,-4003.002646,1356,-14918,1214,-2060,1385,5695,59.88,64.13,59.7,66.05,0,-0.083440327,0,-0.047851563
100,0,1.1,1,5.93220339,4535.039048,-13712.96619,-1347.555556,-749.962963,54.65967755,-4322.53556,-2,-14374,1684,-2028,1607,5925,59.88,64.07847357,59.7,66.05,0,-0.051526428,0,0
100,0,1.1,1,6.779661017,3242,-13230,-5196,-1024,-26,-4549,-3742,-14838,792,-2302,1683,6343,59.87932617,64.06044052,59.7,66.05,-0.000673828,-0.018033057,0,0
100,0,1.1,1,7.627118644,2367.957202,-10267.12318,-2872.099115,-589.5,60.5,-4663.765989,-7226,-18072,2920,-2431,2161,6415,59.86101563,64.07385362,59.7,66.05,-0.018310547,0.013413103,0,0
100,0,1.1,1,8.474576271,1912,-7588,292,-155,147,-4717,-7750,-18216,3584,-2555,2383,6158,59.83391602,64.09982474,59.7,66.05,-0.027099609,0.025971125,0,0
100,0,1.1,2,9.322033898,2678,-7588,1923.099115,-392.5,-72,-4258.999197,-7539.459511,-16946.63539,3403.170544,-2481.63701,2487.986165,5470.071075,59.82,64.13,59.7,66.05,-0.013916016,0.030175256,0,0
100,0,1.1,2,10.16949153,3444,-7588,2714,-630,-291,-3636,-6979.658534,-13810.62616,2917.751633,-2291.671031,2575.604435,4343.029959,59.82,64.17916902,59.7,66.09416853,0,0.049169023,0,0.044168532
100,0,1.1,2,11.01694915,2891,-7763,981,-568.0878766,-150.5,-3377.598829,-6178.327801,-9816.099244,2213.347449,-2030.286546,2642.429624,3116.953306,59.81446289,64.2,59.69446289,66.12,-0.005537109,0.020830977,-0.005537109,0.025831468
100,0,1.1,2,11.86440678,2338,-7938,-752,-468,-10,-3161,-5243.198045,-5971.18155,1375.562177,-1742.668041,2685.036541,2131.917769,59.76553711,64.2,59.64553711,66.12,-0.048925781,0,-0.048925781,0
100,0,1.1,2,12.71186441,3216,-7898,-338,-395,-13,-2907,-4282,-3284,490,-1474,2700,1728,59.76,64.17416853,59.64,66.12,-0.005537109,-0.025831468,-0.005537109,0
100,0,1.1,2,13.55932203,3425.831441,-7851.347826,58.81873327,-348.8717811,-68.793058,-2552.356782,-3072,-1876,-716,-1208,1611,1925,59.76,64.13,59.64,66.12,0,-0.044168532,0,0
100,0,1.1,2,14.40677966,3502,-7824,398,-305,-122,-2168,-2112.72663,1051.307182,-868.4286921,-726.4367161,475.7116978,1542.765713,59.76,64.13,59.64,66.15524938,0,0,0,0.035249381
100,0,1.1,2,15.25423729,3288.893732,-7930,682.1765985,-238.6590285,-97.5,-1814.092609,-1070,3106,-918,-110,-386,755,59.76,64.13645996,59.64,66.22228473,0,0.006459961,0,0.067035354
100,0,1.1,2,16.10169492,2924,-8036,842,-178,-73,-1487,560,2272,454,570,-743,-419,59.76,64.19354004,59.64,66.32165412,0,0.057080078,0,0.099369381
100,0,1.1,2,16.94915254,2616.9063,-7992.5625,861.1437955,-139.2241346,-75.12276786,-1183.041065,22,542,636,771,-695,-1203,59.76,64.2,59.64,66.40847041,0,0.006459961,0,0.086816293
100,0,1.1,2,17.79661017,2300.658396,-7897,869.3209219,-106.3232843,-80.66071429,-889.7210235,-456,-276,702,989,-536,-2336,59.76,64.2,59.64,66.49,0,0,0,0.081529591
100,0,1.1,2,18.6440678,1972.081293,-7801.4375,877.3375874,-80.51079175,-88.36830357,-632.54047,-822,-192,478,1277,-397,-3067,59.76,64.2,59.64,66.5725409,0,0,0,0.082540898
100,0,1.1,2,19.49152542,1628,-7758,896,-63,-97,-437,-821.5855625,-201.4426842,-187.4144789,1631.698964,-463.704113,-3956.088309,59.75860255,64.20326071,59.64,66.67670626,-0.001397446,0.003260706,0,0.104165359
100,0,1.1,2,20.33898305,1193.187372,-8089,1069.896839,-50.76112656,-112.6696429,-279.9449426,-820.2822361,-230.440924,-1097.707239,2026.346268,-619.0748926,-4900.88345,59.73940229,64.24806133,59.64,66.82679497,-0.019200267,0.044800623,0,0.150088714
100,0,1.1,2,21.18644068,868,-8420,1230,-45,-124,-201,-818,-280,-1556,2418,-796,-5662,59.71318975,64.30922392,59.64,66.96578711,-0.026212539,0.06116259,0,0.138992141
100,0,1.1,2,22.03389831,780,-8162,838,-80,-118,-212,-740.2995755,-903.6639001,-1484.356941,2809.477018,-1033.086642,-6210.762443,59.7,64.34,59.64,67.09,-0.013189749,0.03077608,0,0.124212888
100,0,1.1,2,22.88135593,608,-8350,626,-62,-110,-241,-664,-1784,-1376,3162,-1216,-6584,59.7,64.34,59.59898438,67.18640578,0,0,-0.041015625,0.096405783
100,0,1.1,2,23.72881356,518.6379017,-8156.074074,844.8148148,-75.07943986,-112.3806734,-307.3606909,-880,-2266,-1312,3419,-1252,-6756,59.7,64.35766804,59.58,67.28228497,0,0.017668038,-0.018984375,0.095879188
100,0,1.1,2,24.57627119,453.8873745,-7795.925926,1251.185185,-105.0477686,-117.8724578,-405.5601904,-1108.700327,-3027.594548,-1015.356933,3653.138443,-1232.253394,-7136.00968,59.7,64.46233196,59.58,67.38612022,0,0.104663923,0,0.10383525
100,0,1.1,2,25.42372881,390,-7602,1470,-138,-124,-505,-1329.231116,-3978.107799,-538.8727068,3861.180333,-1188.506787,-7643.155796,59.7,64.48,59.58,67.4,0,0.017668038,0,0.013879779
100,0,1.1,2,26.27118644,324.9789294,-7701.375,1425,-169.3094105,-130.6051706,-596.1673654,-1462,-4896,-210,3951,-1144,-8012,59.7,64.48,59.58,67.4,0,0,0,0
100,0,1.1,2,27.11864407,264.6490827,-7920,1326,-204.0159075,-138.4101516,-688.919176,-1504,-5692,-108,3904,-1106,-8168,59.7,64.51790534,59.58780123,67.43297437,0,0.037905336,0.007801233,0.032974372
100,0,1.1,2,27.96610169,196.9946947,-8138.625,1227,-242.7144507,-146.2600569,-781.7113986,-1576.835462,-6854.583946,-258.2356902,3989.962522,-1120.637784,-8319.149396,59.7,64.5656839,59.60721956,67.49850572,0,0.047778563,0.019418323,0.065531347
100,0,1.1,2,28.81355932,110,-8238,1182,-286,-153,-873,-1681.750526,-8102.95864,-551.5824916,4163.702822,-1160.386678,-8467.132502,59.7,64.60464444,59.63227691,67.54650639,0,0.038960545,0.02505735,0.048000668
100,0,1.1,2,29.66101695,-70.16752577,-7970,1214,-341.7792713,-157.9348485,-957.8840527,-1816,-8686,-752,4299,-1219,-8611,59.6755957,64.68939175,59.67005513,67.52501608,-0.024404297,0.084747306,0.037778222,-0.02149031
100,0,1.1,2,30.50847458,-200,-7702,1246,-399,-163,-1050,-2064.352605,-8322,-818.8181818,4371.000496,-1391.561147,-8751.9592,59.64,64.75937586,59.7,67.46569399,-0.035595703,0.069984106,0.029944872,-0.059322082
100,0,1.1,2,31.3559322,18.67241015,-7854.444444,1154.222222,-442.9417021,-171.3789122,-1171.158127,-2286,-7958,-848,4406,-1604,-8884,59.64,64.71352538,59.7,67.42769455,0,-0.04585048,0,-0.037999447
100,0,1.1,2,32.20338983,427.5670425,-8137.555556,983.7777778,-482.4432129,-181.0507536,-1310.436763,-2350,-8042,-754,4406,-1726,-8999,59.64,64.69,59.70325195,67.38691199,0,-0.023525377,0.003251953,-0.04078256
100,0,1.1,2,33.05084746,656,-8290,892,-525,-187,-1445,-2432,-8866,-328,4407,-1807,-9167,59.64,64.69,59.74456055,67.33829449,0,0,0.041308594,-0.048617498
100,0,1.1,2,33.89830508,663.5928976,-7896,936.6115108,-577.5726707,-188.4385339,-1567.14326,-2332,-9576,-90,4386,-1846,-9280,59.63304616,64.68527862,59.81456597,67.26026229,-0.006953836,-0.004721382,0.070005425,-0.078032197
100,0,1.1,2,34.74576271,672,-7502,1036,-628,-190,-1683,-2377.966353,-10510.44269,-28.31130166,4391.772669,-1953.62658,-9273.394673,59.60863678,64.66571881,59.88297208,67.16064145,-0.024409383,-0.019559813,0.068406112,-0.099620842
100,0,1.1,2,35.59322034,766,-7896,1224,-665,-197,-1790,-2492.377151,-11497.75377,9.288793617,4406.434227,-2118.866168,-9253.900458,59.58522915,64.6377444,59.90288298,67.05018613,-0.02340763,-0.027974409,0.019910894,-0.110455317
100,0,1.1,2,36.44067797,1132,-8172,1034,-719,-248,-1839,-2640,-12088,22,4426,-2273,-9222,59.58,64.6034165,59.91456174,66.94002424,-0.005229151,-0.034327898,0.011678766,-0.11016189
100,0,1.1,2,37.28813559,738,-8510,1072,-774,-302,-1896,-2878.427679,-12267.03496,-196,4471.172414,-2416.244946,-9035.521606,59.58,64.5545065,59.9317286,66.87439265,0,-0.048909996,0.017166851,-0.065631588
100,0,1.1,2,38.13559322,805,-8407.925926,929,-846.0735294,-333.4425982,-2015.942408,-3170,-12386,-414,4506,-2501,-8741,59.5555957,64.57847168,59.9873456,66.87,-0.024404297,0.023965177,0.055617007,-0.004392655
100,0,1.1,2,38.98305085,872,-8192,786,-890,-348,-2140,-3424,-12492,-262,4428,-2506,-8475,59.52,64.62,60.06466445,66.87,-0.035595703,0.04152832,0.077318847,0
100,0,1.1,2,39.83050847,822,-7844,1026,-890,-330,-2206,-3895.123612,-12804.31508,-201.5951754,4128.449376,-2384.729293,-8075.728551,59.52,64.62,60.10031708,66.87,0,0,0.035652625,0
100,0,1.1,2,40.6779661,938.875,-8109.625,1189.202408,-911.758021,-445.3125,-2257.001742,-4508,-13280,-136,3628,-2160,-7467,59.51756908,64.62,60.13483122,66.87,-0.002430921,0,0.03451414,0
100,0,1.1,2,41.52542373,1196,-8694,1333.568807,-965.6047228,-699,-2299.802949,-5349.571979,-13769.21332,219.668659,2933.600602,-1934.799461,-6073.225436,59.49676601,64.62,60.17264769,66.87,-0.020803072,0,0.037816471,0
100,0,1.1,2,42.37288136,1453.125,-9278.375,1436.650803,-1034.399063,-952.6875,-2347.452681,-6267.119323,-14371.92851,771.5009962,2049.590621,-1669.765927,-4010.497842,59.47095417,64.62,60.215512,66.87,-0.025811837,0,0.042864312,0
100,0,1.1,2,43.22033898,1570,-9544,1476,-1101,-1068,-2413,-6698,-15242,1058,1205,-1360,-2190,59.46,64.62018894,60.24,66.86770609,-0.01095417,0.000188942,0.024488002,-0.002293914
100,0,1.1,2,44.06779661,1521.535851,-9475.5625,1255.375,-1174.68787,-995.8125,-2522.746218,-5815.011873,-17861.39438,363.3125,350.9788349,-883.8195438,-763.9597565,59.46,64.63814815,60.24,66.70572766,0,0.017959206,0,-0.161978425
100,0,1.1,2,44.91525424,1393.095602,-9325,770,-1260.710431,-837,-2681.977448,-3858.031662,-22252.51722,-1165,-554.7688134,-270.1173723,596.2019451,59.46,64.66896319,60.24664689,66.6525,0,0.030815037,0.006646892,-0.053227661
100,0,1.1,2,45.76271186,1210.107553,-9174.4375,284.625,-1335.877777,-678.1875,-2872.219954,-1865.03562,-26379.88146,-2693.3125,-1273.382055,260.1434854,1700.512674,59.46,64.68925982,60.29185199,66.7165625,0,0.02029663,0.045205096,0.0640625
100,0,1.1,2,46.61016949,998,-9106,64,-1377,-606,-3075,-874,-28208,-3388,-1566,486,2359,59.46,64.69,60.335512,66.72,0,0.000740184,0.04366001,0.0034375
100,0,1.1,2,47.45762712,692.9714607,-9496.004063,296.7981606,-1388.088127,-622.0113741,-3313.596438,-784,-27424,-2534,-1470,-878,2616,59.46,64.68946335,60.36,66.71750154,0,-0.000536646,0.024488002,-0.00249846
100,0,1.1,2,48.30508475,254.7370578,-10383.34146,804.7074323,-1394.707571,-662.9116372,-3587.154495,-3910,816,2744,850,-593,4620,59.46,64.64629798,60.36,66.52469753,0,-0.043165369,0,-0.192804012
100,0,1.1,2,49.15254237,-256,-11344,1302,-1406,-718,-3841,-1970.24117,-150,2693.364181,612.3926569,445.5204997,3906,59.45648891,64.59631913,60.37131687,66.35274667,-0.003511093,-0.049978858,0.011316872,-0.171950861
100,0,1.1,3,50,-1043.890659,-12351.60532,1775.440716,-1460.596805,-815.3094513,-4025.250487,2199.739881,-1944,2511.61725,-14.99246398,1942.315805,2580,59.43526969,64.54235082,60.41555556,66.23709671,-0.021219214,-0.053968306,0.044238683,-0.115649959
100,0,1.1,3,50.84745763,-1955.278663,-13457.88949,2239.053691,-1544.520625,-964.4308027,-4193.880192,6126,-2910,2154,-904,2706,1866,59.41038673,64.496777,60.42,66.10550832,-0.024882964,-0.045573824,0.004444444,-0.131588387
100,0,1.1,3,51.69491525,-2392,-14356,2448,-1588,-1127,-4448,8890,-2260,-8844,-2781,1411,2601,59.4,64.48,60.41932617,65.96622583,-0.010386729,-0.016776996,-0.000673828,-0.139282495
100,0,1.1,3,52.54237288,-1832,-14922,2012,-1320,-1302,-5052,6558.75,-3290.859615,-6636.8125,-2362.09375,821.126142,3246.154085,59.4,64.48,60.37391602,65.82777495,0,0,-0.045410156,-0.138450878
100,0,1.1,3,53.38983051,-1066,-14966,1540,-1271,-1442,-5352,1430,-5572.625641,-1781,-1440.5,358.3621262,3873.94252,59.4,64.49460411,60.36,65.69864708,0,0.014604112,-0.013916016,-0.129127867
100,0,1.1,3,54.23728814,-1391,-14077.53009,1077.386496,-1276.297101,-1642.269265,-5601.336588,-3698.75,-7889.078846,3074.8125,-518.90625,56.16704734,4349.509695,59.4,64.54732139,60.36,65.57231029,0,0.052717281,0,-0.126336791
100,0,1.1,3,55.08474576,-1716,-12924,638,-1288,-1790,-5822,-6030,-9024,5282,-100,-52,4538,59.4,64.55,60.36,65.33864078,0,0.002678608,0,-0.233669509
100,0,1.1,3,55.93220339,-1322.837264,-12433.46991,148.0059737,-1306.896126,-1830.059406,-5998.280011,-5641.679957,-9138.687179,3476.661198,-958.4265316,215.5,4470,59.4,64.55,60.35940159,65.09390655,0,0,-0.000598412,-0.244734231
100,0,1.1,3,56.77966102,-376,-12208,-134,-1340,-1846,-6201,-4606,-9184,514,-1824,483,4402,59.4,64.55,60.31714635,64.96924931,0,0,-0.042255241,-0.124657243
100,0,1.1,3,57.62711864,2300.849647,-15265,1147.970509,-1412.889992,-1683,-6694.672874,-856,-7130,-1748,-1832,-107,4972,59.390625,64.528125,60.3,64.84346424,-0.009375,-0.021875,-0.017146346,-0.125785064
100,0,1.1,3,58.47457627,6002,-18322,2966,-1539,-1520,-7057,-1106,-8056,-1048,-1149,-298,4750,59.34257813,64.41601563,60.3,64.70628732,-0.048046875,-0.112109375,0,-0.137176921
100,0,1.1,3,59.3220339,9132,-17602,3826,-1780,-2106,-6138,-1986.979089,-7885.407407,267.0222743,-1117.642072,-194.2962963,4408.023416,59.37,64.44034587,60.27,64.641875,0.027421875,0.024330245,-0.03,-0.064412322
100,0,1.1,4,60.16949153,7430,-14928,4354,-1911,-2567,-5535,-3246.600656,-7568.592593,1820.511137,-1104.497506,-1.703703704,3989.080559,59.4,64.48444169,60.24,64.62,0.03,0.044095821,-0.03,-0.021875
100,0,1.1,4,61.01694915,2673.319586,-11576.33005,4350.908517,-1802.399077,-3049.320199,-4478.783214,-3888,-7398,2570,-1086,102,3595,59.4,64.501314,60.24,64.62,0,0.016872311,0,0
100,0,1.1,4,61.86440678,-928,-7336,4340,-1667,-3560,-3077,-3650.777082,-7433.822535,1924.376997,-1053.671775,85.66666667,3254.201617,59.4,64.51246154,60.24,64.62,0,0.011147543,0,0
100,0,1.1,4,62.71186441,-362,-1084,3160,-1630,-4126,-1332,-3174.887498,-7538.089513,613.8651042,-1009.363157,55.33333333,2933.874269,59.4,64.52220541,60.24,64.62,0,0.009743863,0,0
100,0,1.1,4,63.55932203,2874.443134,-1901,432.221075,-1452.411363,-2999.729094,-1887.5,-2814,-7706,-422,-945,39,2644,59.4,64.53486668,60.24,64.62,0,0.012661271,0,0
100,0,1.1,4,64.40677966,5668,-2718,-1538,-1152,-1325,-2443,-2676,-8296,-874,-803,86,2398,59.4,64.55621849,60.24,64.62803582,0,0.021351807,0,0.008035823
100,0,1.1,4,65.25423729,2805.49843,-1688,-1081.456897,-728.1961453,-284.5309019,-1889.345148,-2454,-7562,-598,-546,60,2112,59.4,64.60775581,60.24,64.78618767,0,0.051537321,0,0.158151842
100,0,1.1,4,66.10169492,-60,-658,-268,-310,478,-990,-2527.6,-7637,-208.6701741,-382.6261992,62,1868.913025,59.4,64.62,60.25391602,64.83,0,0.012244193,0.013916016,0.043812335
100,0,1.1,4,66.94915254,-64.49843042,-857.4932099,725.4568966,-65.51283264,960.0374884,-342.6178181,-2646,-7712,268,-285,64,1632,59.4,64.62,60.29932617,64.83,0,0,0.045410156,0
100,0,1.1,4,67.79661017,-66,-1244,1362,141,1251,329,-2752.4,-7624,995.9256039,-243.4695313,48,1355.567593,59.4,64.64215102,60.27,64.74743715,0,0.022151015,-0.029326172,-0.082562849
100,0,1.1,4,68.6440678,310,-1854.50679,953.5824051,356.5913535,1367.024591,1193.681173,-2814,-7536,1472,-226,32,1105,59.40017212,64.69625095,60.24067383,64.60966322,0.000172119,0.054099934,-0.029326172,-0.137773929
100,0,1.1,4,69.49152542,686,-2278,248,562,1451,2014,-2699.413136,-7597.875,1415.177852,-230.6875,45.59375,902.1551332,59.41639526,64.80614728,60.28608398,64.50175852,0.016223145,0.109896327,0.045410156,-0.107904701
100,0,1.1,4,70.33898305,384,-2098,-380,750,1542,2565,-2411.768362,-7734,1281.14094,-241,75.5,712.5523178,59.44360474,64.96039232,60.29257033,64.53262682,0.027209473,0.15424504,0.006486347,0.030868297
100,0,1.1,4,71.18644068,740,-1660,-818,1017,1705,3330,-2035.239407,-7870.125,1124.533557,-251.3125,105.40625,566.1733436,59.45982788,65.09925869,60.24815928,64.84720511,0.016223145,0.138866376,-0.044411053,0.31457829
100,0,1.1,4,72.03389831,1143.968379,-1530.791682,-877.1561413,1235.997486,1872.978887,3859.6675,-1654,-7932,1000,-256,119,493,59.46,65.1911046,60.19773771,65.2043579,0.000172119,0.091845908,-0.050421571,0.357152795
100,0,1.1,4,72.88135593,1535.98419,-1449.951397,-909.911404,1432.130865,2029.767221,4299.42824,-1186.019434,-7811,901.4295302,-226.8475,103.4886364,470.3558504,59.46,65.27910202,60.18,65.33,0,0.08799742,-0.017737708,0.125642096
100,0,1.1,4,73.72881356,1712,-1422,-920,1617,2099,4755,-786,-7690,848,-187,80,461,59.46,65.38061459,60.18,65.33,0,0.10151257,0,0
100,0,1.1,4,74.57627119,1609,-1788.801864,-782.3719008,1799.115979,2034.263596,5264.726321,-584.0963855,-7805.385382,853.2232143,-166.1525,62.51136364,514.043131,59.46,65.48677158,60.18,65.31185185,0,0.106156989,0,-0.018148148
100,0,1.1,4,75.42372881,1506,-2456,-554,1958,1889,5798,-492,-7996,866,-156,53,606,59.46,65.59026432,60.18,65.26240055,0,0.103492743,0,-0.049451303
100,0,1.1,4,76.27118644,1507.336676,-3169.820867,-328.6280992,2082.737881,1608.845166,6361.565128,-603,-8181.614618,894.9791756,-158.5714286,70,691.9149528,59.43,65.68576673,60.18,65.31082162,-0.03,0.095502405,0,0.048421071
100,0,1.1,4,77.11864407,1512,-3890,-194,2186,1198,6943,-714,-8292,960,-165,87,774,59.40257813,65.78080078,60.18,65.42008138,-0.027421875,0.095034053,0,0.109259759
100,0,1.1,4,77.96610169,1770,-4440,-200,2268,684,7532,-644,-7678,1236,-183,59,836,59.450625,65.89359375,60.18,65.53894972,0.048046875,0.112792969,0,0.118868343
100,0,1.1,4,78.81355932,2038.551873,-4881.131158,-262.0062176,2360.492767,187.9134691,8059.784027,-889.9600694,-7688.569801,1485.767442,-224.3092145,71.45890411,916.4796016,59.46,65.89519074,60.18,65.66222225,0.009375,0.00159699,0,0.123272529
100,0,1.1,4,79.66101695,2190,-5220,-394,2459,-192,8498,-1162,-7718,1620,-285,93,1004,59.46,65.83600356,60.18,65.75394684,0,-0.059187177,0,0.091724585
100,0,1.1,4,80.50847458,1836,-5426,-662,2562,-373,8794,-1204.039931,-8058.430199,1538.007692,-371.1984757,117.0410959,1087.0914,59.46,65.75120183,60.14735599,65.80945256,0,-0.084801737,-0.032644006,0.055505727
100,0,1.1,4,81.3559322,1418,-5836,-1202,2718,-381,9229,-1220,-8380,1392,-457,132,1173,59.46,65.63779712,60.12,65.83,0,-0.113404701,-0.027355994,0.020547438
100,0,1.1,4,82.20338983,840,-6206,-1466,2848,-246,9555,-1158.704023,-8096.968481,1213.992308,-514.3651149,127.5,1267.851867,59.46,65.55328462,60.12,65.83,0,-0.084512503,0,0
100,0,1.1,4,83.05084746,-226,-6922,-1712,3033,209,9924,-1054,-7774,1100,-557,123,1365,59.4698877,65.54,60.1101123,65.86479004,0.009887695,-0.013284621,-0.009887695,0.034790039
100,0,1.1,4,83.89830508,-652,-7546,-1446,3121,635,9980,-941.295977,-7708.031519,1281,-581.5628796,135,1465.150298,59.51603027,65.54,60.06396973,65.97831543,0.046142578,0,-0.046142578,0.113525391
100,0,1.1,4,84.74576271,-684,-8648,-826,3115,1431,10081,-872,-7682,1462,-608,159,1551,59.55422954,65.61671386,60.01794434,65.98,0.038199268,0.076713861,-0.046025391,0.00168457
100,0,1.1,4,85.59322034,-572,-10312,-1042,3057,2028,10324,-1224,-8008,1344,-673.8849957,193.5365854,1607.41875,59.59033359,65.70673171,60,65.97664221,0.036104048,0.090017847,-0.017944336,-0.00335779
100,0,1.1,4,86.44067797,-396.8445034,-11213.39374,-821.4212571,2998.573309,2913.422249,10306.26842,-1576,-8334,1226,-750,231,1653,59.6230121,65.75235642,60,65.93464116,0.032678509,0.045624711,0,-0.04200105
100,0,1.1,4,87.28813559,-137.0390634,-11829.444,-253.9566855,2939.453692,3992.264221,10256.04911,-1268,-7681,1271,-798.8764918,263.9634146,1689.914017,59.66226664,65.76,60,65.88443728,0.039254541,0.007643581,0,-0.050203878
100,0,1.1,4,88.13559322,274.7859082,-12469.27225,518.9862288,2855.857229,4903.974083,10177.80525,-960,-7028,1316,-848,282,1731,59.69953321,65.76,60,65.83338788,0.037266572,0,0,-0.051049408
100,0,1.1,4,88.98305085,906,-13442,1356,2724,5288,10076,-1376,-7349,1218,-914.2384936,279.5,1805.915053,59.7,65.791489,59.99348153,65.80234501,0.000466788,0.031488999,-0.006518467,-0.03104287
100,0,1.1,4,89.83050847,3544,-15484,2448,2261,5153,9833,-1792,-7670,1120,-993,277,1892,59.70388076,65.84451145,59.97476591,65.77642056,0.003880756,0.053022454,-0.018715626,-0.025924441
100,0,1.1,4,90.6779661,4516.806128,-17377.61919,2215.984934,1774.480082,4754.647964,9604.274826,-1772.775281,-7654.611765,1177.949468,-1087.569765,358.5208333,1962.054264,59.74588235,65.8950546,59.95010669,65.76150466,0.042001597,0.050543145,-0.024659213,-0.014915906
100,0,1.1,4,91.52542373,5124.102519,-19072.03182,1750.636535,1316.795596,4071.165252,9357.563641,-1734,-7622,1282,-1190,449,2032,59.77270169,65.92795626,59.91661152,65.7741143,0.026819339,0.032901659,-0.033495172,0.012609637
100,0,1.1,4,92.37288136,5952,-19806,1398,1114,3268,8974,-1691.039788,-7552.388235,1388.165526,-1287.980539,458.7854581,2107.72549,59.7883147,65.95534463,59.88046084,65.82549432,0.015613004,0.027388376,-0.036150678,0.051380025
100,0,1.1,4,93.22033898,7955.882208,-17254.88889,1265.500532,1171.296296,2205.156443,7787.592198,-1614,-7500,1496,-1390,469,2192,59.80338038,65.97450808,59.88,65.87784697,0.015065688,0.019163444,-0.000460845,0.052352652
100,0,1.1,4,94.06779661,10489.82999,-12517.11111,1172.2892,1277.703704,926.8843146,5771.147963,-1324,-7598,1584,-1504,532,2296,59.82559874,65.98,59.88,65.93661386,0.022218357,0.005491923,0,0.058766889
100,0,1.1,4,94.91525424,11738,-9966,1032,1335,-125,3764,-1544,-7508,1386,-1619,601,2427,59.86406877,65.98,59.88,65.97575413,0.03847003,0,0,0.039140271
100,0,1.1,4,95.76271186,9926.814815,-11014.86452,762.8391944,1039.270699,-950.1488649,2005.701893,-1520,-8354,688,-1732,855,2545,59.90777344,65.96604963,59.88,65.98,0.043704667,-0.013950373,0,0.004245867
100,0,1.1,4,96.61016949,6563.185185,-13322.84016,317.2007006,422.2080643,-1653.463321,256.5519586,-2216,-9254,1238,-1716,1466,2541,59.94,65.91,59.88,65.98,0.032226562,-0.056049627,0,0
100,0,1.1,4,97.45762712,4752,-15632,-340,-111,-1951,-1363,322,-14034,1758,-1727,1169,2646,59.94,65.82684069,59.85496438,65.96539589,0,-0.08315931,-0.02503562,-0.014604112
100,0,1.1,4,98.30508475,5201,-17996.61075,-2505.669161,-490.0545362,-1130,-3119.150759,194.7401352,-13050.37037,1330.740741,-1841.715514,1014.510384,2854.881422,59.94494606,65.73417057,59.80428252,65.93583147,0.004946061,-0.092670122,-0.050681864,-0.029564421
100,0,1.1,4,99.15254237,5650,-19416,-4284,-691,-309,-4118,-84.07528509,-11223.62963,537.2592593,-2058.411859,902.3107477,3149.062122,59.9915978,65.64873397,59.7645919,65.91267861,0.04665174,-0.085436597,-0.039690617,-0.02315286
100,0,1.1,4,100,4592.449112,-14678.03822,-1892,-127,-975.888126,-4028.828378,-360,-10240,110,-2240,859,3452,60,65.53293925,59.76,65.91,0.008402198,-0.115794722,-0.004591899,-0.002678608
100,0,1.1,1,0,1722,-6824,500,437,-1899,-3816,-580,-11930,674,-2337,1102,3744,60,65.4072208,59.76,65.91,0,-0.125718447,0,0
100,0,1.1,1,0.840336134,-9500,-642,-4922,-638,-2298,-3311,-198.4375,-13505.26133,1494.936945,-2366.930856,1219.991679,4063.27128,60,65.36361905,59.76,65.91,0,-0.043601747,0,0
100,0,1.1,1,1.680672269,-5656.179282,-5282,-4750.242052,-546.1403809,-592,-4424,641,-15075.84341,2487.055062,-2388.521872,1302.882847,4399.26107,60,65.2890269,59.75446289,65.91645996,0,-0.074592151,-0.005537109,0.006459961
100,0,1.1,1,2.521008403,264,-9922,-4274,-351,1114,-5537,1480.4375,-16282.00378,3322.645648,-2401.601952,1374.08259,4741.120325,60,65.02915776,59.70553711,65.97354004,0,-0.259869143,-0.048925781,0.057080078
100,0,1.1,1,3.361344538,4915.179282,-9619.311906,933.2420524,69.14038086,263.2718897,-5517.246073,1862,-16764,3674,-2406,1457,5078,60,64.87275748,59.7,65.98,0,-0.156400284,-0.005537109,0.006459961
100,0,1.1,1,4.201680672,7490,-8880,5836,386,-811,-5460,1847.488642,-16611.52717,3282.963294,-2331.074074,1552.460353,5456.245151,60,64.75602332,59.7,65.98,0,-0.116734151,0,0
100,0,1.1,1,5.042016807,6928,-6978,4986,-400,-1124,-5150,1801.866173,-16220.83212,2464.815477,-2191.925926,1653.534524,5832.8635,60,64.66626265,59.7,65.98,0,-0.089760674,0,0
100,0,1.1,1,5.882352941,4485.674164,-7110,2649.174435,-749.3318524,-583.9228204,-5422,1722,-15692,1752,-2117,1772,6063,60,64.60573022,59.7,65.98,0,-0.060532429,0,0
100,0,1.1,1,6.722689076,2338,-7242,-8,-898,26,-5694,-354.9261237,-14404.86527,1234.332961,-2241.5,1915.920421,6138.493481,60,64.57145346,59.7,65.98,0,-0.034276759,0,0
100,0,1.1,1,7.56302521,2188,-7068,-1532,-625,113,-5061,-3592,-13400,958,-2366,2107,6200,59.9690625,64.46208918,59.7,65.98,-0.0309375,-0.109364281,0,0
100,0,1.1,1,8.403361345,4224,-7348,-584,-480,26,-4766,-6415.581932,-17136,1583.797572,-2347,2388.801559,6318.159159,59.88,64.27,59.7,65.98,-0.0890625,-0.192089182,0,0
100,0,1.1,1,9.243697479,3766.148148,-7728.17094,109.4223195,-471.0866913,-45.37026284,-4358.755893,-8030,-20872,2822,-2328,2796,6396,59.83195313,64.15789063,59.65898438,65.98,-0.048046875,-0.112109375,-0.041015625,0
100,0,1.1,2,10.08403361,2915.851852,-8124.752137,675.7111597,-467.7505365,-106.240687,-3886.480197,-6068,-16714,4458,-2391,3482,5774,59.82,64.13598396,59.64,65.98,-0.011953125,-0.021906661,-0.018984375,0
100,0,1.1,2,10.92436975,2458,-8308,910,-460,-132,-3448,-4368.6529,-12557.59931,3977.277948,-2275.172949,3318.924382,4562.733419,59.82,64.18119079,59.64,65.98,0,0.045206823,0,0
100,0,1.1,2,11.76470588,2558.7677,-8216.989362,382.9056604,-379.1762269,-117.4162708,-3066.457053,-2853.148166,-8540.175539,2950.778117,-1998.234786,2930.51543,3047.219634,59.80101563,64.23181032,59.64,65.98,-0.018984375,0.050619531,0,0
100,0,1.1,2,12.60504202,2772,-8076,-242,-257,-91,-2742,-1830,-5356,2002,-1666,2468,2049,59.76,64.27,59.64,65.98,-0.041015625,0.038189683,0,0
100,0,1.1,2,13.44537815,3116,-7986,-370,-165,-64,-2509,-1183.300855,-2766.615699,1227.702695,-1222.073142,1775.503909,1696.436851,59.76,64.27,59.64,65.99538804,0,0,0,0.01538804
100,0,1.1,2,14.28571429,3396,-8120,76,-33,-84,-2123,-636.9340932,-366.9361771,436.9579512,-632.973316,835.9201416,1482.557043,59.76,64.26782272,59.64,66.02596934,0,-0.00217728,0,0.030581295
100,0,1.1,2,15.12605042,3285.397284,-8100.24,448.6281085,-31.27984906,-95.54881301,-1800.637317,-259.1002849,1398.711434,-178.2657683,-38.88683161,8.626303108,1275.898713,59.76,64.23479392,59.64,66.04836965,0,-0.0330288,0,0.022400312
100,0,1.1,2,15.96638655,3008.831851,-8053.12,814.0312982,-30.12483019,-105.6874146,-1497.895658,-118,2086,-426,420,-347,945,59.76,64.17757312,59.64,66.05,0,-0.0572208,0,0.001630353
100,0,1.1,2,16.80672269,2649.167777,-7996.88,1133.920434,-29.42988679,-113.7516098,-1222.235341,-433.7777778,1794.883981,-158.4444444,722.9952864,-317.2611259,210.5778881,59.76,64.11632032,59.64,66.05,0,-0.0612528,0,0
100,0,1.1,2,17.64705882,2289.269135,-7949.76,1370.006379,-29.08996226,-119.0772033,-981.1166826,-1020.222222,1114.879074,338.4444444,971.8406384,-249.0778073,-851.9512063,59.76,64.07119552,59.64,66.12262061,0,-0.0451248,0,0.07262061
100,0,1.1,2,18.48739496,2012,-7930,1484,-29,-121,-782,-1336,336,606,1210,-174,-1842,59.76,64.06,59.64,66.22692043,0,-0.01119552,0,0.104299825
100,0,1.1,2,19.32773109,1832,-8210,1510,-86,-98,-638,-1038,-558,238,1447,-96,-2599,59.76,64.06,59.64,66.31894084,0,0,0,0.092020405
100,0,1.1,2,20.16806723,1698,-7802,1598,-109,-108,-550,-594,-1320,-128,1796,-222,-3604,59.76,64.0811612,59.63304616,66.43216285,0,0.021161203,-0.006953836,0.113222008
100,0,1.1,2,21.00840336,1140,-7906,1204,-124,-144,-458,-469.4935401,-1960.247112,-292.6467707,2129.362875,-473.9542012,-4248.726639,59.76,64.13415334,59.60863678,66.56605151,0,0.052992135,-0.024409383,0.133888664
100,0,1.1,2,21.8487395,711.5685067,-8068.872928,762.9656212,-110.8046624,-131.5284974,-469.4033019,-392.4134367,-2519.386263,-407.1011631,2446.356424,-823.1252113,-4761.969097,59.76,64.17201888,59.58522915,66.70729844,0,0.037865539,-0.02340763,0.141246925
100,0,1.1,2,22.68907563,460,-8174,508,-89,-115,-498,-366,-2852,-450,2709,-1163,-5256,59.76,64.22849583,59.58,66.84596111,0,0.05647695,-0.005229151,0.138662677
100,0,1.1,2,23.52941176,410,-7988,522,-72,-109,-579,-479.0460251,-2964.316367,-333,2891.633132,-1496.366619,-5763.973586,59.76,64.31968248,59.58,66.98516842,0,0.091186648,0,0.139207309
100,0,1.1,2,24.3697479,799,-7991,812.0609756,-83.23352855,-104.3614458,-700.8216594,-708,-3068,-216,3070,-1740,-6254,59.78214126,64.36960006,59.60214126,67.08580598,0.022141258,0.049917583,0.022141258,0.100637562
100,0,1.1,2,25.21008403,1188,-7994,1090,-117,-102,-796,-1032,-3300,-468,3322,-1822,-6730,59.82,64.41,59.64,67.17,0.037858742,0.040399942,0.037858742,0.084194015
100,0,1.1,2,26.05042017,924,-6734,838,-345,-229,-821,-1387.294326,-3715.48592,-622.9619772,3524.891437,-1755.966216,-7158.961485,59.82,64.49993499,59.59898438,67.27062964,0,0.089934991,-0.041015625,0.100629639
100,0,1.1,2,26.8907563,788,-9152,1564,-270,-169,-880,-1662,-4230,-696,3696,-1648,-7533,59.82,64.56988543,59.58155221,67.34397124,0,0.069950442,-0.017432167,0.073341606
100,0,1.1,2,27.73109244,668,-7670,944,-251,-146,-933,-1796.89667,-4758.066789,-581.9375,3840.876127,-1550.669764,-7849.593806,59.82,64.60974005,59.59606737,67.39513585,0,0.039854618,0.01451516,0.051164601
100,0,1.1,2,28.57142857,702,-7886,792,-297,-164,-947,-1895.631121,-5322.486013,-331,3970.039802,-1445.567568,-8137.277103,59.82,64.68113168,59.61855729,67.43615594,0,0.071391626,0.022489923,0.04102009
100,0,1.1,2,29.41176471,1016,-7812,1118,-255,-160,-1051,-1975.550011,-5883.162231,-80.0625,4089.433577,-1361.431588,-8392.571849,59.82,64.76,59.64,67.47,0,0.078868323,0.02144271,0.033844064
100,0,1.1,2,30.25210084,1004,-7867.306383,1104.305882,-317.0676692,-184,-1114.298949,-2054,-6400,34,4205,-1327,-8612,59.77898438,64.81568356,59.65524018,67.50276438,-0.041015625,0.055683563,0.015240178,0.03276438
100,0,1.1,2,31.09243697,992,-7976,1070,-382,-208,-1165,-2130,-6848,-150,4314,-1373,-8783,59.76,64.83,59.66992573,67.53223427,-0.018984375,0.014316437,0.014685552,0.029469887
100,0,1.1,2,31.93277311,1018.443291,-8155.693617,913.6941176,-384.9323308,-205.7191781,-1212.511407,-2179.162108,-7097.176949,-373.3210332,4452.03497,-1459.797603,-8987.546895,59.76,64.83,59.69123952,67.54891142,0,0,0.021313789,0.016677156
100,0,1.1,2,32.77310924,1090,-8282,778,-388,-199,-1257,-2238,-7374,-506,4578,-1560,-9189,59.74609233,64.82527862,59.74748393,67.50803354,-0.013907672,-0.004721382,0.056244414,-0.040877878
100,0,1.1,2,33.61344538,1366,-7664,846,-418,-159,-1301,-2444.925,-8066.322275,-203.3718354,4659.753459,-1632.903714,-9380.076939,59.69727356,64.80571881,59.82467043,67.38829985,-0.048818766,-0.019559813,0.077186501,-0.119733691
100,0,1.1,2,34.45378151,1554,-7912,762,-491,-234,-1338,-2610,-8986,108,4724,-1720,-9505,59.6504583,64.7777444,59.86058855,67.23812125,-0.04681526,-0.027974409,0.035918114,-0.150178602
100,0,1.1,2,35.29411765,1765.512287,-7882,806.0481586,-518.7230424,-249.2749618,-1398.458543,-2531,-9951.999767,121.3718354,4769.826047,-1890.604163,-9542.846883,59.64,64.7464708,59.89403987,67.14698848,-0.010458302,-0.031273592,0.033451323,-0.091132767
100,0,1.1,2,36.13445378,1888,-7852,908,-530,-265,-1438,-2452,-10790,126,4823,-2124,-9558,59.64,64.70314079,59.92919189,67.1063426,0,-0.043330014,0.035152025,-0.040645882
100,0,1.1,2,36.97478992,1846.630738,-8045.286539,1138.654428,-512,-449.8667174,-1391.578571,-2722,-11258,-220,4944,-2407,-9387,59.62186183,64.65212914,59.96404925,67.0150637,-0.018138174,-0.051011654,0.034857355,-0.091278904
100,0,1.1,2,37.81512605,1724,-8442,1468,-494,-637,-1341,-3204,-11350,-280,4990,-2530,-9253,59.57617946,64.62,60.0052518,66.94054694,-0.045682363,-0.032129136,0.041202546,-0.074516763
100,0,1.1,2,38.65546218,966,-9026,1814,-504,-657,-1336,-4056,-11330,-190,4951,-2478,-9045,59.53216212,64.62,60.08013172,66.98575145,-0.044017341,0,0.074879927,0.045204513
100,0,1.1,2,39.49579832,543.8241374,-9019.193624,1644.236575,-560.447527,-608.5185185,-1443.717708,-4926,-11544,-130,4721,-2210,-8898,59.52,64.62,60.13763333,67.04113618,-0.012162122,0,0.057501606,0.055384727
100,0,1.1,2,40.33613445,228.391902,-8996.831692,1304.250928,-661.0489001,-518.4814815,-1675.213193,-5244.299003,-12511.56778,-215.1257253,4164.890094,-1772.797795,-8595.487043,59.52,64.62,60.17292011,67.08798373,0,0,0.035286785,0.04684755
100,0,1.1,2,41.17647059,-86,-8956,1048,-750,-470,-1893,-5508,-14148,-400,3517,-1487,-8101,59.52,64.62,60.2084776,67.09,0,0,0.035557486,0.002016275
100,0,1.1,2,42.01680672,-434,-8620,952,-806,-508,-2046,-5959.591001,-16927.54123,-831.8742747,3103.715363,-1649.80554,-7234.54016,59.51940159,64.62069815,60.24352411,67.08930185,-0.000598412,0.000698148,0.035046512,-0.000698148
100,0,1.1,2,42.85714286,-408.3289033,-8878.042293,935.9779046,-844.0703944,-520.8638179,-2293.473055,-6402,-18868,-1164,2660,-1826,-5855,59.47714635,64.66999593,60.27858301,67.04000407,-0.042255241,0.049297781,0.035058903,-0.049297781
100,0,1.1,2,43.69747899,-345.7689177,-9411.640141,926.8778412,-875.4020501,-528.5868578,-2608.376037,-6680,-16748,158,1913,-1842,-3371,59.46,64.69,60.31625828,67.02,-0.017146346,0.020004071,0.037675271,-0.020004071
100,0,1.1,2,44.53781513,-268,-9860,924,-908,-540,-2922,-8224.323444,-14726.96861,-857,761.1901557,-1572.710519,-583.8463994,59.46,64.69,60.36486689,67.02,0,0,0.048608609,0
100,0,1.1,2,45.37815126,-167.5056027,-10078.18505,964.352349,-952.0996858,-564.9696962,-3222.15821,-9552,-13592,-1872,-313,-1061,1685,59.46,64.69,60.40668773,67.02,0,0,0.041820838,0
100,0,1.1,2,46.21848739,-30.49500526,-10227.35045,1080.939597,-1002.449721,-602.9673697,-3528.34042,-8846,-13554,-1812,-874,-460,2783,59.46,64.69,60.42,67.02,0,0,0.013312269,0
100,0,1.1,2,47.05882353,130.7630948,-10405.84063,1267.057047,-1043.824895,-647.2313584,-3819.352421,-7518.993868,-13052.58017,-261.3624743,-667.59375,366.8282736,3136.845696,59.46,64.69,60.42,67.02,0,0,0,0
100,0,1.1,2,47.89915966,304,-10712,1516,-1061,-691,-4074,-5720.473753,-11970.19216,3022.177801,-213.5,1341.680688,3358.276803,59.450625,64.6790625,60.4309375,67.0122739,-0.009375,-0.0109375,0.0109375,-0.007726104
100,0,1.1,3,48.7394958,510,-11704,2188,-1048,-735,-4276,-4080.216761,-10754.70807,6281.129175,240.59375,2154.192758,3528.819509,59.40257813,64.62300781,60.48699219,66.9531842,-0.048046875,-0.056054687,0.056054688,-0.059089691
100,0,1.1,3,49.57983193,-1316,-13948,2410,-1186,-833,-4371,-3228,-9854,7758,447,2494,3730,59.4,64.62,60.49,66.88134212,-0.002578125,-0.003007813,0.003007813,-0.07184208
100,0,1.1,3,50.42016807,-848,-15052,2412,-1248,-968,-4699,-3000.674596,-9250.845213,6815.552,377.5405883,2149.552,4016.783859,59.4,64.61921387,60.49,66.7769751,0,-0.000786133,0,-0.10436702
100,0,1.1,3,51.2605042,-1934,-14962,2706,-1017,-1248,-5061,-2817.628921,-8671.610865,4568.176,198.901765,1328.176,4348.261842,59.4,64.56623535,60.49,66.58413677,0,-0.052978516,0,-0.192838331
100,0,1.1,3,52.10084034,-1420,-14472,1994,-821,-1574,-5487,-2682.445947,-8179.55391,1885.824,-44.30735251,347.824,4662.147894,59.4,64.55,60.49,66.41739398,0,-0.016235352,0,-0.166742794
100,0,1.1,3,52.94117647,-1467.185185,-13998.56209,1186.063241,-742.3609003,-1848.29323,-5779.547626,-2598.708649,-7837.931303,-361.552,-307.4776467,-473.552,4896.155965,59.4,64.55,60.49,66.28456142,0,0,0,-0.132832559
100,0,1.1,3,53.78151261,-1554.814815,-13567.94771,402.0316206,-689.4026724,-2084.535504,-6023.27231,-2570,-7710,-1304,-546,-818,4988,59.37,64.515,60.49,66.13009463,-0.03,-0.035,0,-0.154466789
100,0,1.1,3,54.62184874,-1602,-13380,50,-670,-2185,-6298,-5278,-8524,3400,-724.1416447,-249.6481777,4973.757396,59.34,64.48,60.49,65.96261904,-0.03,-0.035,0,-0.167475592
100,0,1.1,3,55.46218487,65.03703704,-13864.81481,320.7905932,-696.3911274,-2140.666667,-6736.446448,-7986,-9338,8104,-990,547,4930,59.34,64.48,60.49,65.77466187,0,0,0,-0.187957168
100,0,1.1,3,56.30252101,3160.962963,-14765.18519,966.2478531,-763.4489214,-2058.333333,-7218.77878,-5702,-6708,4818,-1942,908,4586,59.34,64.45079178,60.4794686,65.61994644,0,-0.029208223,-0.010531397,-0.154715427
100,0,1.1,3,57.14285714,4828,-15250,1736,-853,-2014,-7446,-2382.476043,-6497.152988,141.7670274,-2089.561039,404.4933456,5082.5,59.34,64.34535722,60.42878768,65.49557229,0,-0.105434561,-0.050680923,-0.124374154
100,0,1.1,3,57.98319328,4727.407407,-14925.10312,2939.752147,-1046.318104,-2286.088878,-6991.290571,-290,-6432,-2786,-2139,-107,5579,59.34,64.34,60.38215324,65.36008065,0,-0.005357216,-0.046634443,-0.135491636
100,0,1.1,4,58.82352941,4540.592593,-14093.09514,4391.209407,-1317.809589,-2874.399977,-5973.692254,-3614,-7244,-1708,-1169,-116,5359,59.34,64.34,60.36,65.24060095,0,0,-0.022153236,-0.119479701
100,0,1.1,4,59.66386555,4440,-12968,5096,-1489,-3437,-4913,-3845.421564,-7194.222222,25.97196965,-1223.424511,-19.55555556,4878.623871,59.34,64.34,60.36,65.16397907,0,0,0,-0.076621886
100,0,1.1,4,60.50420168,4964.222222,-10475.23967,3986.820079,-1544.354839,-3944.118541,-3846.388994,-3966.821893,-7101.777778,1959.097096,-1334.071244,159.5555556,4213.168256,59.34,64.34,60.33496438,64.98193835,0,0,-0.02503562,-0.182040718
100,0,1.1,4,61.34453782,5937.777778,-6886.677599,1840.751268,-1582.677419,-4429.392604,-2729.53859,-4002,-7052,2874,-1422,256,3638,59.34,64.34,60.2445919,64.64768693,0,0,-0.090372481,-0.334251414
100,0,1.1,4,62.18487395,6462,-4436,430,-1597,-4646,-1960,-3278,-8126,838,-1461,159,3263,59.34427577,64.3548565,60.24,64.56991839,0.004275769,0.014856497,-0.004591899,-0.077768545
100,0,1.1,4,63.02521008,5095.939394,-3557.655532,23.10058337,-1345.396585,-3939.816282,-1612.931116,-2917.06101,-8524.788624,-656.5036003,-1267.650998,135.4527734,2927.501593,59.35834134,64.40608254,60.24,64.55431331,0.014065568,0.051226041,0,-0.015605076
100,0,1.1,4,63.86554622,2423.212121,-2963.648816,-258.6719305,-838.6820583,-2494.29923,-1372.772641,-2758,-8686,-1404,-962,115,2648,59.37638484,64.47781476,60.24,64.64826496,0.018043502,0.071732225,0,0.093951643
100,0,1.1,4,64.70588235,582,-2304,-364,-449,-1319,-1051,-3022,-7842,-1024,-754,63,2457,59.39228638,64.55314858,60.24,64.71357625,0.015901538,0.07533382,0,0.065311289
100,0,1.1,4,65.54621849,92,-1406,-154,-293,-761,-453,-3180,-8062,-186,-529,39,2140,59.39992605,64.61517941,60.24,64.75261869,0.007639674,0.062030826,0,0.039042447
100,0,1.1,4,66.38655462,102.3258302,-1535.111111,124.2451929,-76.459153,-406.1794788,366.4277855,-3445.155889,-8037,690.7185196,-455.8858433,58.20338983,1788.279815,59.4,64.65641969,60.24,64.7836839,7.39E-05,0.04124028,0,0.031065206
100,0,1.1,4,67.22689076,130.4294381,-1774.888889,411.678152,183.25672,-124.3224613,1316.562499,-3620,-8012,1186,-420,83,1438,59.4,64.69994391,60.24,64.81017525,0,0.043524217,0,0.026491347
100,0,1.1,4,68.06722689,172,-1904,544,456,157,2212,-3455.305466,-8415,1052,-408.0246711,93.29661017,1100.063692,59.4,64.75481762,60.24,64.83549612,0,0.054873714,0,0.025320872
100,0,1.1,4,68.90756303,272.1218624,-1812.339939,-283.6694021,740.5554286,456.927717,2995.709797,-3100,-8818,918,-396,98,821,59.4,64.81868843,60.24,64.8630499,0,0.06387081,0,0.027553779
100,0,1.1,4,69.74789916,450,-1642,-1128,1034,766,3704,-2492,-7742,1184,-355,57,653,59.4,64.89211103,60.24,64.89623997,0,0.073422606,0,0.03319007
100,0,1.1,4,70.58823529,801.3608694,-1405.660061,-1153.330598,1336.935327,1121.381791,4330.551904,-2116.637543,-7848,1169.022749,-341.4807692,70.84278351,587.6957685,59.4,64.97713915,60.16880859,64.94808538,0,0.085028115,-0.071191406,0.051845414
100,0,1.1,4,71.42857143,1194,-1248,-1162,1604,1456,4873,-1764,-7954,1126,-327,98,547,59.4,65.07729663,60.12444444,64.96481481,0,0.100157483,-0.044364149,0.016729434
100,0,1.1,4,72.26890756,1434,-1352,-968,1784,1702,5303,-1278,-7856,904,-271,133,518,59.4,65.19445991,60.16868313,64.91320302,0,0.117163277,0.044238683,-0.051611797
100,0,1.1,4,73.1092437,1422,-1888,-704,2010,1864,5927,-970.191105,-8106,791.7088167,-262.4245372,131.3328402,524.2330372,59.4,65.34106285,60.18,64.9,0,0.146602938,0.011316872,-0.013203018
100,0,1.1,4,73.94957983,1456.589041,-2522.752413,-593.9585062,2187.55096,1736.070825,6506.850609,-708,-8356,742,-254,126,541,59.4,65.5245548,60.18,64.9,0,0.183491955,0,0
100,0,1.1,4,74.78991597,1522,-3130,-548,2348,1478,7047,-434,-7336,1056,-204,67,604,59.4,65.67480554,60.21264401,64.95301362,0,0.150250735,0.032644006,0.053013618
100,0,1.1,4,75.6302521,1600.161057,-3594.11806,-592.0740741,2513.309356,1105.42878,7535.501678,-737.3333333,-7547.555556,1380.606133,-224.3116778,90.85185185,662.5618279,59.4,65.7729713,60.24,65.06241823,0,0.098165758,0.027355994,0.109404614
100,0,1.1,4,76.47058824,1693.226224,-4002.429891,-673.9259259,2673.951099,617.9353158,7994.824854,-1300.666667,-7940.444444,1683.969733,-267.7344667,135.1481481,719.0071158,59.4,65.82394257,60.24,65.20407285,0,0.050971278,0,0.141654616
100,0,1.1,4,77.31092437,1774,-4426,-718,2814,180,8459,-1604,-8152,1818,-308,159,776,59.4,65.8156381,60.24,65.3391815,0,-0.00830447,0,0.135108652
100,0,1.1,4,78.1512605,1845.390728,-4905.523352,-709,2921.468228,-190.601454,8938.533172,-1301.185185,-8019.259259,1719.533477,-332.703592,155.1111111,828.3933004,59.4,65.76434561,60.24,65.45987253,0,-0.051292489,0,0.120691031
100,0,1.1,4,78.99159664,1884,-5380,-700,3026,-443,9428,-738.8148148,-7772.740741,1513.511399,-355.0088841,147.8888889,881.3501155,59.43264401,65.72384457,60.24,65.55194847,0.032644006,-0.040501047,0,0.092075938
100,0,1.1,4,79.83193277,1512,-5802,-1104,3157,-525,9937,-436,-7640,1334,-387,144,953,59.46,65.67964041,60.23821757,65.62158405,0.027355994,-0.044204156,-0.001782427,0.069635583
100,0,1.1,4,80.67226891,1406,-6114,-1374,3266,-493,10245,-943,-7881,1203.608171,-455.7900726,144.222155,1099.244944,59.46,65.61910959,60.19755932,65.66818966,0,-0.060530822,-0.04065825,0.046605603
100,0,1.1,4,81.51260504,1097.170856,-6767.990979,-982,3392.058306,-423.8932764,10550.95752,-1450,-8122,1134,-545,145,1251,59.4630113,65.61,60.15371591,65.74560055,0.0030113,-0.009109589,-0.043843415,0.077410898
100,0,1.1,4,82.35294118,814,-7728,-590,3475,-308,10809,-1434,-7822,1248,-629,196,1328,59.47870665,65.61,60.12039703,65.82894734,0.015695348,0,-0.033318879,0.083346786
100,0,1.1,4,83.19327731,731.7514124,-9080.633046,-599.0606061,3486.672934,-94.69791602,11014.01144,-1437.892818,-8259,1311.199708,-669.9148861,208.5357659,1385.59434,59.50224897,65.61,60.12,65.83,0.023542322,0,-0.00039703,0.001052661
100,0,1.1,4,84.03361345,698,-10660,-616,3498,246,11119,-1448,-8696,1340,-707,218,1438,59.52844241,65.61,60.11505394,65.83,0.026193442,0,-0.004946061,0
100,0,1.1,4,84.87394958,791.4986945,-12557.60936,-639.9393939,3580.507022,815.5530987,11067.17206,-1538.560915,-8531.62963,1309.782689,-763.4618071,231.8828705,1490.290356,59.56502063,65.61,60.0684022,65.83,0.03657822,0,-0.04665174,0
100,0,1.1,4,85.71428571,1018,-13708,-656,3653,1604,10934,-1693.724902,-8226.37037,1242.232044,-831.1241391,248.6427554,1542.580713,59.604823,65.61,60.06,65.81581086,0.039802367,0,-0.008402198,-0.014189142
100,0,1.1,4,86.55462185,1584,-13380,134,3649,2617,10520,-1776,-8062,1172,-901,271,1603,59.65245929,65.61,60.06,65.76445729,0.047636288,0,0,-0.051353564
100,0,1.1,4,87.39495798,2158,-13270,248,3593,3135,10237,-1763.124476,-8098.296296,1095.027215,-975.1223051,321.2130546,1698.896702,59.69027628,65.61,60.0244043,65.7111612,0.037816998,0,-0.035595703,-0.05329609
100,0,1.1,4,88.23529412,3228,-13910,578,3471,3491,9840,-1721.804507,-8165.703704,1014.958052,-1051.697748,387.1620829,1807.553362,59.7,65.61467983,60,65.69,0.009723716,0.004679829,-0.024404297,-0.021161203
100,0,1.1,4,89.07563025,3880,-14762,1112,3290,3442,9467,-1648,-8202,978,-1116,420,1862,59.7,65.66852337,60,65.69,0,0.053843544,0,0
100,0,1.1,4,89.91596639,4614.981645,-15903.33658,1355.547904,2915.4441,3216.689896,8898.761744,-1152,-7336,1268,-1161,376,1865,59.71216212,65.72103766,60,65.7041143,0.012162122,0.052514282,0,0.014114295
100,0,1.1,4,90.75630252,5408,-16604,1460,2473,2873,8136,-1578,-7698,1250,-1269,447,2039,59.75617946,65.75954502,60,65.75549432,0.044017341,0.038507361,0,0.051380025
100,0,1.1,4,91.59663866,6266,-13936,870,2119,2530,7036,-1871.561381,-8265.876538,1368.567842,-1380.51281,675.0823783,2109.004419,59.80186183,65.76,59.97809166,65.79990537,0.045682363,0.000454983,-0.02190834,0.04441105
100,0,1.1,4,92.43697479,6190,-12818,1082,1872,2097,5871,-2106.114024,-9103.388235,1658.691239,-1488.773477,993.7078558,2155.150647,59.82,65.76,59.92646799,65.84596733,0.018138174,0,-0.051623675,0.04606196
100,0,1.1,4,93.27731092,7806,-11906,-240,1425,1473,3373,-2202,-10352,2022,-1567,1155,2192,59.82,65.76,59.88486184,65.89201157,0,0,-0.041606144,0.046044236
100,0,1.1,4,94.11764706,7646,-10932.95333,-1025.602192,987.8758142,1138.481232,772.1379417,758,-13342,2550,-1608,913,2223,59.83898438,65.76,59.88,65.94257524,0.018984375,0,-0.004861842,0.050563671
100,0,1.1,4,94.95798319,7486,-10042,-1424,587,879,-1305,613.9312071,-11216,1597.615612,-1719.096913,797.3221258,2448.815973,59.88,65.76,59.88,65.98,0.041015625,0,0,0.037424763
100,0,1.1,4,95.79831933,7612,-9221.439169,-1470.313416,230.5307607,590.4475518,-2492.697311,252,-9090,344,-1871,747,2772,59.88,65.67895343,59.87268986,65.98,0,-0.081046574,-0.00731014,0
100,0,1.1,4,96.63865546,7846,-8490.164029,-1490.246904,-93.30950099,319.3860432,-3386.864883,-780,-9284,-98,-2020,840,2999,59.88494606,65.5955529,59.85429249,65.98,0.004946061,-0.083400522,-0.018397372,0
100,0,1.1,4,97.4789916,7972,-8174,-1544,-351,151,-4116,22,-10256.70251,494.7597893,-2147.205045,902.5072924,3194.448978,59.9315978,65.56050214,59.83010746,65.98,0.04665174,-0.035050767,-0.024185034,0
100,0,1.1,4,98.31932773,7638,-11406,-2508,-525,90,-4696,824,-11818,1578,-2220,957,3427,59.94,65.47711276,59.80025186,65.98,0.008402198,-0.083389376,-0.029855599,0
100,0,1.1,4,99.15966387,-8674,-32768,-5724,-1049,503,-2325,2,-13548,2714,-2228,1014,3851,59.94,65.33,59.76,65.98,0,-0.147112761,-0.040251856,0
100,0,1.1,4,100,-5612,-15709,-1340,-243,44.30734547,-2814,214.0597015,-13538,2409.596386,-2251.759124,1113.909882,4266.550587,59.94,65.20065523,59.71597391,65.98,0,-0.129344774,-0.044026091,0
100,0,1.1,1,0,-2550,1350,3044,563,-886,-3303,446,-13528,1978,-2270,1244,4631,59.94,65.07062648,59.7,65.98,0,-0.130028745,-0.015973909,0
100,0,1.1,1,0.826446281,-5782,-4310,1362,-717,-2208,-211,470,-13926,1774,-2245,1398,4892,59.94,64.93863691,59.7,65.98,0,-0.131989571,0,0
100,0,1.1,1,1.652892562,-5073.703704,-5391.702725,1601.555556,-875.2417196,-2106.16939,-508.934026,614,-16802,1530,-2360,1413,5233,59.94,64.81560535,59.7,65.98,0,-0.12303156,0,0
100,0,1.1,1,2.479338843,-3302.962963,-6068.897818,2200.444444,-971.1773944,-1849.542048,-1266.299994,1326.047593,-16298.51852,1349.636469,-2273.666667,1373.851852,5498.205468,59.94,64.69,59.7,65.98,0,-0.125605349,0,0
100,0,1.1,1,3.305785124,-1001,-6499.355187,2979,-1029.014042,-1511.414706,-2278.44374,2419.579352,-15363.48148,1191.687768,-2113.333333,1301.148148,5733.053281,59.97785874,64.5169857,59.66214126,65.98,0.037858742,-0.173014296,-0.037858742,0
100,0,1.1,1,4.132231405,1300.962963,-6840.844735,3757.555556,-1072.958681,-1165.084096,-3340.711099,2986,-14860,998,-2027,1262,5987,59.99612533,64.37839495,59.64,65.97561165,0.018266589,-0.138590755,-0.022141258,-0.004388355
100,0,1.1,1,4.958677686,3071.703704,-7251.136371,4356.444444,-1127.218327,-883.8469499,-4248.447908,563.9656957,-14884.62747,626.2645161,-2116.452555,1332.863008,6306.261341,59.95274102,64.29452193,59.64,65.92543692,-0.043384312,-0.083873018,0,-0.050174725
100,0,1.1,1,5.785123967,3780,-7888,4596,-1216,-741,-4797,-3614,-14970,370,-2267,1522,6609,59.90904824,64.20708787,59.64,65.86949936,-0.043692775,-0.087434058,0,-0.055937564
