locomotion_mode,terrain_info,walk_speed_info,gait_phase,gait_percentage,left_accel_x,left_accel_y,left_accel_z,left_gyro_x,left_gyro_y,left_gyro_z,right_accel_x,right_accel_y,right_accel_z,right_gyro_x,right_gyro_y,right_gyro_z,left_hip_angle,left_knee_angle,right_hip_angle,right_knee_angle,left_hip_angle_vel,left_knee_angle_vel,right_hip_angle_vel,right_knee_angle_vel
202,-10,0.7,2,46.77419355,3308,-7786,1250,-608,-588,-2592,-1960,-10016,690,922,-696,-1440,59.64229595,65.25693873,60.17936556,66.79,-0.045186241,0.060248321,0.017397112,0
202,-10,0.7,2,47.58064516,2290.964411,-8983.998332,1217.362637,-695.130504,-639.0338484,-2638.739075,-2024,-9866,430,648,-543,-822,59.64,65.26,60.18,66.72161001,-0.00229595,0.003061266,0.000634444,-0.068389986
202,-10,0.7,2,48.38709677,1442,-10180,1162,-797,-676,-2730,-1150.814815,-14292.59259,-571.0200986,212.2405435,-424.0348769,-313.5968137,59.64,65.26069815,60.18,66.64,0,0.000698148,0,-0.081610014
202,-10,0.7,2,49.19354839,1587.850622,-9949.713987,1103.637363,-853.4588435,-700.0673899,-2853.919237,470.8148148,-22513.40741,-2032.176716,-299.4289031,-324.6285496,152.1888532,59.64,65.30999593,60.18,66.64,0,0.049297781,0,0
202,-10,0.7,2,50,1842,-9682,1068,-898,-732,-2981,1344,-26940,-2780,-668,-283,670,59.64,65.3225625,60.18,66.6165625,0,0.012566571,0,-0.0234375
202,-10,0.7,2,50.80645161,2074,-9634,1100,-935,-866,-3061,-1966,-16956,-1618,-834,-1872,1318,59.64,65.27015365,60.18,66.49644531,0,-0.052408854,0,-0.120117188
202,-10,0.7,2,51.61290323,2998,-9492,414,-950,-894,-3191,-1549.009208,-15398.14245,509.7770465,-604.5812446,-1376.473759,1201.074074,59.64,65.21066667,60.18,66.49,0,-0.059486979,0,-0.006445313
202,-10,0.7,2,52.41935484,3334,-9070,-284,-967,-907,-3244,-547.1295263,-14662.25616,3000.110745,-142.4958226,-403.3919624,983.9259259,59.64,65.18,60.18,66.48806993,0,-0.030666667,0,-0.001930074
202,-10,0.7,3,53.22580645,3016.10618,-9302.842697,-375.9333226,-963.2222222,-876,-3382.294629,666,-13482,4198,213,277,867,59.64,65.18,60.18,66.43094174,0,0,0,-0.057128181
202,-10,0.7,3,54.03225806,2476,-9852,-406,-959,-845,-3525,2710.552025,-9842.721318,2176.501893,395.2789002,526.8246455,1212.102273,59.64,65.1690625,60.18,66.32653622,0,-0.0109375,0,-0.104405524
202,-10,0.7,3,54.83870968,2065.683835,-11489.04111,703,-958.2777778,-948.1666017,-3578.37479,4158,-6130,-974,483,638,1715,59.64,65.11300781,60.18,66.21828837,0,-0.056054688,0,-0.108247852
202,-10,0.7,3,55.64516129,1554,-13164,1812,-958,-1123,-3641,3378,-4692,-3024,-62,448,1977,59.64,65.11,60.18,66.12963607,0,-0.003007813,0,-0.088652295
202,-10,0.7,3,56.4516129,598,-13650,1510,-999,-1270,-3885,2735.1395,-5897.799785,-2323.764916,-145.4540362,245.4609799,2357.672391,59.64,65.11063694,60.18,66.04133208,0,0.000636944,0,-0.088303992
202,-10,0.7,3,57.25806452,90.24576271,-13945.33922,1143.890794,-926.5,-1235.210714,-4111.326075,2111.18392,-8252.044015,-670.1964987,-192.3381292,38.8151785,2806.259468,59.64,65.15774737,60.18,65.95830634,0,0.047110422,0,-0.083025741
202,-10,0.7,3,58.06451613,-138,-14084,710,-854,-1168,-4234,1188,-9860,1266,-207,-153,3208,59.63832,65.19255193,60.18,65.84490206,-0.00168,0.034804566,0,-0.113404285
202,-10,0.7,3,58.87096774,1818.454216,-11266,8.383519837,-1017.5,-1066.257374,-4121.19313,-914,-10272,3618,-157,-318,3511,59.62704,65.21599425,60.18,65.70100888,-0.01128,0.023442315,0,-0.143893177
202,-10,0.7,3,59.67741935,4510,-8448,-456,-1181,-990,-3935,-834,-8750,2731.174286,-534.6128915,130,3431,59.61,65.23591347,60.18,65.61457587,-0.01704,0.019919228,0,-0.086433012
202,-10,0.7,3,60.48387097,5966.665515,-8464.25,-316.509732,-1145.84375,-977.9780508,-3804.628095,-754,-7228,982,-1082,578,3351,59.59296,65.25074039,60.17932617,65.52864248,-0.01704,0.014826917,-0.000673828,-0.085933392
202,-10,0.7,3,61.29032258,7260.091569,-8500,52.64071474,-1068.5,-969.563823,-3686.280772,-7494,-12348,-1308,-1362,-635,4999,59.58168,65.25890577,60.13391602,65.36770712,-0.01128,0.008165379,-0.045410156,-0.160935353
202,-10,0.7,3,62.09677419,8185.971838,-8535.75,577.4708041,-991.15625,-964.6176836,-3548.793064,-5426.033318,-9717,233,-1479.065147,-535.7976747,5124.424165,59.59391602,65.26,60.12,65.33,0.012236016,0.00109423,-0.013916016,-0.037707123
202,-10,0.7,4,62.90322581,8540,-8552,1184,-956,-963,-3361,-3188,-7086,1774,-1528,-368,5163,59.63932617,65.26,60.12,65.33,0.045410156,0,0,0
202,-10,0.7,4,63.70967742,7718,-8016,2136,-967,-1140,-3006,-2902.014842,-7285.111111,1068.814815,-1516.566725,-199.2628233,5022.525902,59.60735599,65.28885203,60.12,65.29191533,-0.031970178,0.028852025,0,-0.038084673
202,-10,0.7,4,64.51612903,6872.413297,-6716.60117,2630.983923,-981.3041872,-1398.761861,-2534.417072,-2727.229643,-7654.888889,-240.8148148,-1485.577895,-27.54166807,4704.71847,59.58,65.33823529,60.12,65.26,-0.027355994,0.049383269,0,-0.031915327
202,-10,0.7,4,65.32258065,6054,-4520,2852,-990,-1701,-1963,-2668,-7854,-946,-1440,57,4365,59.58,65.37941176,60.12,65.26,0,0.041176471,0,0
202,-10,0.7,4,66.12903226,5324,-404,2360,-958,-2016,-1249,-3106.666667,-7770,-740.908066,-1271.33452,64.64441304,4040.610543,59.58,65.42045736,60.12,65.26,0,0.041045596,0,0
202,-10,0.7,4,66.93548387,3612.628155,3566.574677,411.0557481,-900.9918494,-1847.584483,-648.6062992,-3921.333333,-7614,-284.7050208,-1002.369216,68.80164659,3688.132124,59.58,65.46156839,60.12,65.26,0,0.041111033,0,0
202,-10,0.7,4,67.74193548,2372,5748,-2390,-790,-1468,-334,-4360,-7530,184,-835,74,3342,59.58,65.51348745,60.09,65.26,0,0.051919053,-0.03,0
202,-10,0.7,4,68.5483871,4548,-848,-4930,-357,-723,-656,-4212,-7866,594,-803,83,3017,59.58,65.54,60.06,65.26,0,0.026512554,-0.03,0
202,-10,0.7,4,69.35483871,2538,-2244,-2168,425,199,-186,-4484,-7827.517241,693.6818182,-758.427686,90.84090909,2628.701321,59.58,65.54,60.06,65.26,0,0,0,0
202,-10,0.7,4,70.16129032,1254.999264,-2358.188594,73.02661334,685.7999256,156.4814815,575.483949,-4756,-7722,730,-709,95,2249,59.58,65.54997456,60.06,65.26,0,0.009974561,0,0
202,-10,0.7,4,70.96774194,257.4996321,-2402.576759,1976.291084,846.879989,77.51851852,1539.002964,-4642,-7290,452,-662,80,1950,59.58,65.59791224,60.06,65.26,0,0.047937676,0,0
202,-10,0.7,4,71.77419355,-144,-2504,2780,989,35,2477,-4463.626635,-7373.824,467.184,-634.1054625,82.808,1696.437787,59.61,65.71816671,60.06,65.26,0.03,0.120254478,0,0
202,-10,0.7,4,72.58064516,1502,-3088,868,1133,90,3301,-4230.901592,-7573.712,503.392,-613.6780156,89.504,1457.20984,59.64,65.84275934,60.06,65.26267861,0.03,0.124592627,0,0.002678608
202,-10,0.7,4,73.38709677,1464.148148,-2949.037037,11.44601218,1297.005298,187.7126115,3921.997264,-3969.36323,-7812.288,546.608,-595.7978374,97.496,1237.863,59.64,65.88533061,60.06,65.31539589,0,0.042571264,0,0.052717281
202,-10,0.7,4,74.19354839,1393.851852,-2690.962963,-583.2769939,1474.624825,326.5416266,4457.512923,-3704.549912,-8012.176,582.816,-575.5451062,104.192,1043.944107,59.64,65.95094096,60.05788238,65.32566603,0,0.065610359,-0.002117616,0.010270138
202,-10,0.7,4,75,1356,-2552,-806,1662,494,4985,-3462,-8096,598,-548,107,881,59.64,66.04384759,60.04332069,65.29975958,0,0.092906631,-0.014561697,-0.025906447
202,-10,0.7,4,75.80645161,1408,-2906,-606,1865,724,5526,-3244.41299,-7581,539,-497.5837725,82,752.7562735,59.64,66.0894385,60.02027755,65.270347,0,0.045590901,-0.023043132,-0.029412583
202,-10,0.7,4,76.61290323,1520.00102,-3674.123609,-772,2060.598309,687.5,6048.66398,-3034,-7066,480,-450,57,646,59.64,66.12843725,59.99383496,65.26,0,0.038998759,-0.026442593,-0.010346996
202,-10,0.7,4,77.41935484,1714,-4326,-938,2225,651,6504,-2837.81721,-7330.444444,487.6310406,-423.926078,62.59322034,530.6446545,59.64,66.17031279,59.94993842,65.26,0,0.04187554,-0.043896544,0
202,-10,0.7,4,78.22580645,2140,-4470,-702,2331,668,6829,-2645.561565,-7821.555556,508.15097,-403.963039,74.85310734,423.9334384,59.64,66.26083396,59.94,65.27623535,0,0.090521165,-0.009938417,0.016235352
202,-10,0.7,4,79.03225806,2106,-4923.282813,-515.5961189,2402.425862,571.8853955,7177.584598,-2426,-8086,538,-396,87,377,59.64,66.41234168,59.94,65.32921387,0,0.151507718,0,0.052978516
202,-10,0.7,4,79.83870968,2072,-5490,-420,2467,474,7540,-2143.565444,-7933.555556,646.6638448,-411.9621873,98.8876334,396.6591412,59.64,66.46064883,59.94,65.29191533,0,0.048307155,0,-0.037298541
202,-10,0.7,4,80.64516129,2314,-5884,-768,2541,472,7914,-1819.992363,-7650.444444,813.5541446,-443.257708,110.6660389,449.6516158,59.64,66.4989672,59.94257813,65.26,0,0.038318371,0.002578125,-0.031915327
202,-10,0.7,4,81.4516129,2350.276997,-6033.065142,-633.3477089,2588.983105,380.3800866,8274.616478,-1510,-7498,900,-465,116,527,59.64,66.54656872,59.990625,65.26,0,0.04760152,0.048046875,0
202,-10,0.7,4,82.25806452,2378,-6172,-406,2612,188,8616,-1238,-7630,772,-471,63,708,59.65374155,66.62885594,60,65.26,0.013741548,0.082287219,0.009375,0
202,-10,0.7,4,83.06451613,2463.169811,-6432.216329,-169.6522911,2607,-184.067356,8972.479776,-1180.396726,-7578,938,-496.5552998,68.37702429,863.4665829,59.69720051,66.71885637,60,65.26,0.043458958,0.090000427,0,0
202,-10,0.7,4,83.87096774,2526,-6850,-26,2602,-550,9221,-1160,-7526,1104,-539,80,1011,59.72278271,66.72,60,65.26,0.025582205,0.001143633,0,0
202,-10,0.7,4,84.67741935,2242.777126,-7725.066329,-484,2635,-728.7027027,9312.239559,-1193.356541,-7526.078666,1038.6875,-594.4705846,105.0535849,1160.821291,59.74526321,66.72,60,65.26093869,0.022480497,0,0,0.000938688
202,-10,0.7,4,85.48387097,1770,-9032,-942,2668,-811,9354,-1280.450777,-7526.376443,895,-665.5121738,144.4009902,1309.722911,59.75862781,66.72,60,65.29011262,0.013364599,0,0,0.029173928
202,-10,0.7,4,86.29032258,1390,-10786,-852,2662,-623,9360,-1401.819624,-7526.985999,751.3125,-738.7976761,181.7979004,1459.013075,59.76,66.68554483,60,65.34884242,0.001372193,-0.034455172,0,0.058729799
202,-10,0.7,4,87.09677419,1250.670553,-11131.33363,-843.015091,2621.821993,27.48761086,9179.947651,-1538,-7528,686,-801,201,1610,59.76,66.57693325,60,65.42179408,0,-0.108611581,0,0.072951661
202,-10,0.7,4,87.90322581,1159.001943,-11314.09474,-839.250167,2535.481608,1038.537686,8766.784191,-1734,-7852,824,-847,204,1764,59.76,66.52800555,60,65.49363359,0,-0.048927695,0,0.071839514
202,-10,0.7,4,88.70967742,1126,-11508,-832,2425,1830,8311,-1768.222222,-7838,781.4814815,-914.9015529,207.1670777,1957.419975,59.76,66.47458425,60,65.54938286,0,-0.053421299,0,0.055749268
202,-10,0.7,4,89.51612903,1276.871821,-11818.53305,-778.4126593,2254.261441,2314.518416,7884.373623,-1787.777778,-7812,702.5185185,-997.4632421,211.0956161,2170.780038,59.76,66.36727086,60,65.59247195,0,-0.107313394,0,0.043089089
202,-10,0.7,4,90.32258065,1677.735463,-12186.81968,-653.0314154,2000.758525,2763.773218,7421.918186,-1794,-7798,660,-1079,218,2365,59.77714635,66.38150319,60,65.64424855,0.017146346,0.014232331,0,0.051776605
202,-10,0.7,4,91.12903226,2250.963194,-12540.03979,-473.2438419,1706.924888,3136.168812,6908.975937,-1680,-7983,837,-1153.699817,262.7342216,2524.461255,59.81940159,66.48310555,60,65.68945306,0.042255241,0.101602364,0,0.045204513
202,-10,0.7,4,91.93548387,2918.927284,-12805.37326,-256.4375123,1415.194168,3390.109604,6330.889125,-1566,-8168,1014,-1228,330,2670,59.82,66.54815329,59.98904583,65.69,0.000598412,0.065047733,-0.01095417,0.000546935
202,-10,0.7,4,92.74193548,3604,-12910,-20,1168,3484,5673,-2047,-8111.135593,934,-1306.612137,380.397089,2817.884057,59.82,66.57,59.96323399,65.69,0,0.021846713,-0.025811837,0
202,-10,0.7,4,93.5483871,4604.899787,-11912,416.1143114,965.1138846,3276.811735,4817.831555,-2528,-7948,854,-1379,435,2942,59.82,66.57,59.94243092,65.69,0,0,-0.020803072,0
202,-10,0.7,4,94.35483871,5410,-10914,732,792,2842,3802,-2504,-7112,892,-1434,509,3020,59.83714635,66.55554992,59.94,65.70220135,0.017146346,-0.014450077,-0.002430921,0.012201352
202,-10,0.7,4,95.16129032,5558.273864,-11003.02528,611.8464323,682.9577693,2178.073346,2679.183968,-3321,-7005.531769,584.7373992,-1471.31467,600.9203137,3085.031307,59.87940159,66.49623576,59.94,65.75681916,0.042255241,-0.059314161,0,0.054617803
202,-10,0.7,4,95.96774194,5736,-11306,384,539,1277,1540,-4138,-6918,34,-1498,665,3135,59.88,66.40996483,59.94,65.81377438,0.000598412,-0.086270935,0,0.056955227
202,-10,0.7,4,96.77419355,7890,-19308,118,-11,183,536,-4067.697825,-6520.816886,-650.7373992,-1516.060928,676.5332173,3163.997417,59.88,66.33091512,59.94,65.83,0,-0.079049703,0,0.016225617
202,-10,0.7,4,97.58064516,7331.040748,-17637.47962,-420.6704987,-513.8192261,-108.8055848,-737.538095,-3886,-6200,-1092,-1528,688,3190,59.88,66.27678465,59.94,65.83,0,-0.054130469,0,0
202,-10,0.7,4,98.38709677,5880,-13784,-796,-785,-354,-1699,-3308,-7290,-1030,-1534,736,3225,59.89386917,66.27,59.94,65.83,0.013869173,-0.006784655,0,0
202,-10,0.7,4,99.19354839,1182,-5630,3574,-393,-881,-1985,-3395.111111,-8778.39467,-193.9929517,-1566.582542,909.6702919,3214.284623,59.94,66.27,59.94,65.83,0.046130827,0,0,0
202,-10,0.7,4,100,-4900.040912,-6934,4549.088745,8.685935258,-2275.170224,-1468.5,-3556.888889,-10456.67846,1251.892413,-1637.607164,1159.557368,3182.680357,59.97547734,66.23943175,59.94,65.83,0.035477343,-0.030568251,0,0
202,-10,0.7,1,0,-8592,-8238,4898,234,-3317,-952,-3644,-11852,2020,-1736,1287,3131,60.01212701,66.18004129,59.93505394,65.84236515,0.036649667,-0.05939046,-0.004946061,0.012365154
202,-10,0.7,1,0.8,-7133.174726,-7394,-1012,-414,-2566.433532,-1546.312994,-2668,-12766,800,-1928,1212,2935,60.054138,66.08751617,59.8884022,65.9589945,0.042010991,-0.092525124,-0.04665174,0.116629351
202,-10,0.7,1,1.6,-4718,-6550,-6922,-1062,-1474,-2536,-2525.358986,-12660,-23.57934509,-1901.394608,1346,3082.203154,60.06,65.99976398,59.88,65.98,0.005861999,-0.087752185,-0.008402198,0.021005496
202,-10,0.7,1,2.4,-2760.007433,-8877,-2204,-228.5,-764.470227,-3523.187006,-2478,-12554,-424,-1863,1480,3290,60.06,65.91,59.88,65.98,0,-0.08976398,0,0
202,-10,0.7,1,3.2,-940,-11204,2514,605,-387,-4115,-2692.284355,-12921,-37,-1838.605392,1424.295455,3412.296846,60.06,65.7789321,59.88,65.98,0,-0.131067895,0,0
202,-10,0.7,1,4,366.0310942,-10038.37037,2422.817716,217.8465114,-375.8811744,-4108,-3066,-13288,350,-1826,1366,3474,60.06,65.65882776,59.88139745,65.98163035,0,-0.12010434,0.001397446,0.001630353
202,-10,0.7,1,4.8,1527.576433,-7873.62963,2142.302099,-513.5291995,-371.6168183,-4095,-3408,-13042,-498,-1840,1363,3445,60.06,65.56708989,59.90059771,66.00403066,0,-0.091737878,0.019200267,0.022400312
202,-10,0.7,1,5.6,3320,-6708,1662,-944,-359,-4088,-2836,-13206,-516,-1736,1548,3419,60.06,65.5132311,59.92681025,66.03461196,0,-0.053858789,0.026212539,0.030581295
202,-10,0.7,1,6.4,7836,-13842,-708,-984,172,-4872,-2146.613948,-13120.33458,-195,-1692.950613,1416.832661,3467,60.06,65.47,59.94,66.05,0,-0.043231097,0.013189749,0.01538804
202,-10,0.7,1,7.2,1946,-8092,-2350,-603,276,-4527,-1738,-12852,126,-1651,1204,3515,60.06,65.34790175,59.94,66.00583147,0,-0.122098254,0,-0.044168532
202,-10,0.7,1,8,3330,-7950,-2122,-462,164,-4457,-3444,-10396,126,-1557,1047,3502,60.05917133,65.23448166,59.93446289,65.98,-0.00082867,-0.113420089,-0.005537109,-0.025831468
202,-10,0.7,1,8.8,3285.351955,-7710.321497,-462.0914077,-363.4673913,7.448753463,-4188.155743,-6302,-8116,208,-1440,1302,3215,60.0466294,65.16050023,59.88553711,65.98,-0.012541927,-0.073981426,-0.048925781,0
202,-10,0.7,1,9.6,3182,-7552,1014,-315,-90,-3844,-8682,-8282,-872,-1575,1596,3402,60.0250027,65.09927854,59.88,65.99535925,-0.0216267,-0.061221694,-0.005537109,0.015359251
202,-10,0.7,1,10.4,2868.648045,-7662.258303,947.208033,-337.5,-61.5,-3618.536774,-8214.191882,-8502.781853,-665.1542948,-1387.647059,1644.005455,3006.170022,60.00206633,65.04522616,59.88,66.05,-0.022936374,-0.05405238,0,0.054640749
202,-10,0.7,2,11.2,2614,-7840,776,-360,-33,-3401,-7486,-8638,-218,-1120,1688,2430,59.97715882,64.99004113,59.88,66.10464075,-0.024907512,-0.055185024,0,0.054640749
202,-10,0.7,2,12,3024,-8000.741697,-128.208033,-287.2864198,-67,-3143.390479,-7014,-6414,552,-990,1869,2131,59.94539692,64.93258529,59.88,66.12,-0.031761897,-0.057455844,0,0.015359251
202,-10,0.7,2,12.8,3434,-8094,-928,-164,-101,-2871,-5939.692812,-3550.993251,768.2150538,-743.0947227,1858.783121,1632.840311,59.91384089,64.88117664,59.88,66.12,-0.031556028,-0.051408649,0,0
202,-10,0.7,2,13.6,3379,-8063.921569,-485.8006993,-34.66016144,-99.13520408,-2600.876172,-4456.498441,-606.6076198,902.1075269,-415.011618,1829.232908,1005.081056,59.88965412,64.84418995,59.88,66.13886142,-0.02418677,-0.036986685,0,0.018861418
202,-10,0.7,2,14.4,3324,-7976,318,45,-93,-2317,-3262,864,948,-118,1782,431,59.88,64.83,59.88,66.2,-0.009654121,-0.014189955,0,0.061138582
202,-10,0.7,2,15.2,3930,-7476,1148,46,0,-1999,-2578.049763,1047.333178,-357.6296296,77.88983516,1251.507833,10.43869967,59.88,64.83,59.88,66.31138069,0,0,0,0.111380687
202,-10,0.7,2,16,4372,-7960,1312,32,-8,-1715,-2034.292485,1162.222144,-2782.37037,251.2956014,324.4761386,-369.8008002,59.8715978,64.83,59.88,66.35,-0.008402198,0,0,0.038619313
202,-10,0.7,2,16.8,4193.51199,-7868,1260,15.31927811,-42.49208443,-1381.124981,-1440,1202,-4088,513,-169,-846,59.82494606,64.83,59.88,66.35,-0.04665174,0,0,0
202,-10,0.7,2,17.6,3868,-7776,1208,-4,-71,-1058,-690,82,-1924,1136,-128,-1597,59.82,64.81485343,59.88,66.36609135,-0.004946061,-0.015146569,0,0.016091351
202,-10,0.7,2,18.4,3536.572567,-7804.917334,1275.925926,-27.11328198,-66.85185185,-784.1183863,-14.46514745,-879.4382265,643.8877048,1403.033229,3.923652695,-2419.628373,59.82,64.76,59.88,66.42,0,-0.054853431,0,0.053908649
202,-10,0.7,2,19.2,3158.954885,-7884.05689,1402.074074,-53.2412135,-59.14814815,-536.9216034,348,-1634,2158,1616,107,-3198,59.77898438,64.62235335,59.88,66.50930418,-0.041015625,-0.137646647,0,0.089304178
202,-10,0.7,2,20,2778,-8002,1470,-80,-55,-336,19.4781242,-2170.233253,1413.265499,1886.515718,59.69328361,-3857.82763,59.76,64.52545664,59.8884022,66.60823533,-0.018984375,-0.096896717,0.008402198,0.098931151
202,-10,0.7,2,20.8,2406,-8300,1226,-107,-84,-194,-633.488196,-2601.304944,-6.580114095,2171.46313,-33.39121056,-4452.515678,59.76,64.48302286,59.93505394,66.70017533,0,-0.042433777,0.04665174,0.091940005
202,-10,0.7,2,21.6,2168.2345,-8299.867142,1030.097321,-105.3938547,-83.36685714,-198.5064875,-1112,-2878,-880,2450,-99,-4956,59.76,64.52056404,59.94,66.75176715,0,0.037541183,0.004946061,0.051591818
202,-10,0.7,2,22.4,1980.842289,-8299.361425,838.7594862,-101.1015641,-81.54057143,-211.7994624,-1275.402301,-3031.380991,-1017.202564,2739.35243,-116.5682463,-5362.399556,59.76,64.66295211,59.94,66.79,0,0.142388068,0,0.038232848
202,-10,0.7,2,23.2,1816.732829,-8298.322137,674.3729908,-94.91234621,-78.63085714,-233.5391936,-1418,-3124,-1106,2971,-135,-5702,59.76,64.79949662,59.94,66.83612609,0,0.136544508,0,0.046126095
202,-10,0.7,2,24,1648.815579,-8296.588567,559.3243303,-87.61541886,-74.74742857,-263.3859499,-1636,-3168,-1192,3086,-193,-5983,59.76,64.83,59.94,66.90169853,0,0.030503381,0,0.065572436
202,-10,0.7,2,24.8,1450,-8294,516,-80,-70,-301,-1515.185185,-3755.50499,-1177.638646,3214.890693,-327.5670103,-6232.37062,59.76,64.83,59.94,66.99854879,0,0,0,0.096850263
202,-10,0.7,2,25.6,1200,-7934,588,-70,-59,-403,-1290.814815,-4927.224563,-1138.832847,3339.448196,-527.2330936,-6460.174188,59.76,64.85847168,59.9155957,67.05378884,0,0.02847168,-0.024404297,0.055240046
202,-10,0.7,2,26.4,938.0555556,-7975.960227,782.8522727,-71.54812834,-72,-464.0848818,-1170,-6016,-1082,3396,-728,-6640,59.76015266,64.8994657,59.88,67.09441449,0.000152656,0.040994024,-0.035595703,0.040625655
202,-10,0.7,2,27.2,790,-8074,1056,-76,-85,-529,-1307.422738,-6808.533768,-892.0188523,3397.107312,-917.8249608,-6791.422237,59.77477712,64.84828007,59.88,67.1389228,0.014624466,-0.05118563,0,0.044508309
202,-10,0.7,2,28,1022,-8384.039773,1415.147727,-167.9518717,-33.5,-662.3515817,-1597.734364,-7537.345006,-582.7314197,3397.775878,-1108.771321,-6918.600007,59.80039284,64.75862508,59.88,67.18519139,0.025615713,-0.089654997,0,0.046268585
202,-10,0.7,2,28.8,1254,-8638,1644,-257,18,-817,-1858,-8204,-354,3398,-1273,-6972,59.81868105,64.69461632,59.88,67.23555498,0.018288215,-0.064008752,0,0.050363595
202,-10,0.7,2,29.6,762,-7490,1278,-184,-55,-938,-2013.51164,-8891.831936,-263.6705793,3370.202767,-1426.151176,-6971.47007,59.82,64.72731655,59.88,67.21152832,0.00131895,0.032700224,0,-0.024026664
202,-10,0.7,2,30.4,680,-7554,1224,-253,-58,-1074,-2148.847048,-9531.597892,-200.3407013,3305.738867,-1562.242255,-6969.829028,59.82,64.84222527,59.88,67.17,0,0.114908719,0,-0.04152832
202,-10,0.7,2,31.2,638,-7812,1270,-294,-97,-1339,-2320,-9896,-110,3233,-1621,-6967,59.82,65.01566168,59.88,67.17,0,0.17343641,0,0
202,-10,0.7,2,32,768,-7474,1246,-317,-103,-1465,-2670.931579,-10005.81342,136.4623921,3150.883956,-1609.933121,-6928.239999,59.810625,65.16024793,59.889375,67.1340625,-0.009375,0.144586254,0.009375,-0.0359375
202,-10,0.7,2,32.8,827.2160574,-7519.348714,1099.790059,-366.8235278,-111.546749,-1661.773029,-2918,-10080,322,3065,-1596,-6860,59.76257813,65.25616126,59.93742188,66.94988281,-0.048046875,0.095913326,0.048046875,-0.184179688
202,-10,0.7,2,33.6,868.1143578,-7630.030761,867.3394742,-428.6895417,-120.8062028,-1897.050025,-2908,-10152,-38,2996,-1592,-6788,59.76,65.26,59.94,66.94,-0.002578125,0.003838743,0.002578125,-0.009882812
202,-10,0.7,2,34.4,948,-7768,746,-459,-126,-2091,-2950,-10118.13475,-236,2972.822662,-1558.266245,-6678.012037,59.76,65.26,59.94,66.94,0,0,0,0
202,-10,0.7,2,35.2,1338,-7966,772,-455,-127,-2212,-2992,-10052,-326,2955,-1514,-6547,59.76,65.16620771,59.94,66.83746094,0,-0.093792289,0,-0.102539063
202,-10,0.7,2,36,1402,-7360,1072,-492,-150,-2366,-2903.381112,-9954.388504,-152.3056604,2933.668817,-1485.570248,-6416.727396,59.76,65.09563564,59.94,66.79,0,-0.070572071,0,-0.047460937
202,-10,0.7,2,36.8,1593.942382,-7375.555556,1049.777778,-523.0183817,-174.0417143,-2413.871706,-2690,-9870,76,2903,-1471,-6266,59.76,65.06557383,59.94,66.79,0,-0.030061809,0,0
202,-10,0.7,2,37.6,1933.490694,-7414.444444,994.2222222,-550.0394264,-199.396301,-2445.338289,-2168,-9844,156,2823,-1472,-6060,59.76,65.04611786,59.94479155,66.8110055,0,-0.019455972,0.004791547,0.021005496
202,-10,0.7,2,38.4,2339.257773,-7465,922,-575.7056223,-224.7165915,-2467.04208,-1461.589873,-9952.735178,259.6809052,2710.18981,-1455.5,-5843.613793,59.75983805,65.04010376,59.96139544,66.87161001,-0.00016195,-0.006014102,0.016603891,0.060604519
202,-10,0.7,2,39.2,2729.856458,-7515.555556,849.7777778,-602.6594577,-248.6554173,-2485.625408,-994,-10124,370,2581,-1428,-5595,59.74444444,65.05106182,59.9848469,66.92763485,-0.015393605,0.010958067,0.023451467,0.056024832
202,-10,0.7,2,40,3023.899588,-7554.444444,794.2222222,-633.5434209,-269.8656096,-2507.730604,-938.1552,-10268.26482,475.3352065,2455.650414,-1409.720966,-5273.118163,59.71803156,65.07487572,60.01501881,66.94,-0.026412889,0.023813898,0.030171908,0.012365154
202,-10,0.7,2,40.8,3140,-7570,772,-671,-287,-2540,-918,-10350,570,2314,-1384,-4882,59.70063444,65.10414339,60.05797058,66.94,-0.017397112,0.029267672,0.042951766,0
202,-10,0.7,2,41.6,2780,-7438,894,-726,-299,-2591,-974.1281969,-10285.68836,658.0229592,2144.379995,-1254.188819,-4438.936281,59.7,65.1484154,60.06,67.04486464,-0.000634444,0.044272003,0.002029421,0.104864645
202,-10,0.7,2,42.4,2510.022403,-7321.905462,965.0828877,-800.8289474,-326.8571429,-2720.341977,-1110.675192,-10143.33562,745.0204082,1950.891336,-995.0540489,-3940.416768,59.7,65.17842773,60.06,67.16928146,0,0.030012338,0,0.124416811
202,-10,0.7,2,43.2,2374,-7212,998,-847,-347,-2816,-1279.884591,-9998.815068,811.5076531,1727.957009,-691.3922548,-3372.688871,59.7,65.0724707,60.06,67.11581038,0,-0.105957031,0,-0.05347108
202,-10,0.7,2,44,3159.213318,-7125.025034,725.3625632,-825.1108247,-338,-2811.069392,-1434,-9928,838,1470,-428,-2722,59.7,65.05320302,60.06,67.07666133,0,-0.019267685,0,-0.039149047
202,-10,0.7,2,44.8,4430,-6996,292,-790,-329,-2795,-1551.943303,-9920.832192,703.8542714,1099.122514,-175.252009,-1850.027008,59.7,65.10481481,60.06,67.05812029,0,0.051611797,0,-0.018541035
202,-10,0.7,2,45.6,5360,-6454,-8,-765,-387,-2578,-1698,-9918,458,729,-30,-907,59.7,65.11,60.06,67.04167895,0,0.005185185,0,-0.016441343
202,-10,0.7,2,46.4,4826,-6784,372,-804,-440,-2473,-1978,-10324,198,500,-39,-116,59.7,65.11134797,60.06,67.01673927,0,0.001347968,0,-0.024939678
202,-10,0.7,2,47.2,4230.054602,-8242.815879,878.2992787,-823.1083065,-502.0615154,-2483.741401,95,-16001.5211,-588.079646,63.27382518,132,302.33621,59.7,65.21163366,60.06,66.96881293,0,0.100285696,0,-0.047926341
202,-10,0.7,2,48,3630.978841,-10435.74127,1402.482973,-836.7481135,-567.5582471,-2509.149468,2168,-21334,-1194,-362,303,702,59.7,65.28451087,60.06161703,66.91039406,0,0.072877206,0.001617025,-0.058418877
202,-10,0.7,2,48.8,3200,-11566,1644,-859,-624,-2539,488,-14502,-616,-566,-1081,1371,59.7,65.32190619,60.07251781,66.84598589,0,0.037395316,0.010900785,-0.064408167
202,-10,0.7,2,49.6,2921.536345,-9651,1382.170198,-942.7740282,-664.8013526,-2571.665924,541.2484076,-12447.3242,271.1625556,-517.687305,-934.8280553,1501.089124,59.7,65.37348745,60.08911776,66.77543381,0,0.05158126,0.01659995,-0.07055208
202,-10,0.7,2,50.4,2788,-7736,820,-1022,-704,-2617,699.6624204,-10971.89929,1374.909263,-398.1661466,-566.5414808,1588.829221,59.7,65.39841375,60.1059891,66.69967916,0,0.024926306,0.016871339,-0.075754645
202,-10,0.7,2,51.2,3902,-8396,-128,-1036,-753,-2695,961.2452229,-10082.02473,2380.20134,-245.561915,-81.48416592,1638.404708,59.7,65.35914122,60.11770405,66.6196633,0,-0.039272533,0.011714951,-0.080015862
202,-10,0.7,2,52,4154,-8654,-452,-929,-767,-2611,1324,-9784,2972,-98,415,1654,59.7,65.3097871,60.12,66.53477134,0,-0.049354124,0.00229595,-0.084891962
202,-10,0.7,3,52.8,3749.169076,-9086.788502,-243.4653477,-945.7172348,-800.7494632,-2646.374445,2502,-10076,3164,47,975,1628,59.7,65.26210604,60.12,66.43897082,0,-0.047681059,0,-0.095800513
202,-10,0.7,3,53.6,2928.338153,-9723.576751,215.7359713,-984.8789141,-849.171365,-2728.860001,1556,-9116,1864,120,1536,1950,59.7,65.26608775,60.12,66.35037943,0,0.003981711,0,-0.088591395
202,-10,0.7,3,54.4,2282,-10606,676,-1030,-891,-2823,1056,-7262,208,-85,1648,2217,59.7,65.28682211,60.12,66.24253177,0,0.020734365,0,-0.107847664
202,-10,0.7,3,55.2,2042.824367,-12880.77979,1064.747546,-1085.103132,-911.8389358,-2913.701723,1945.540729,-7155.912833,-1366.950448,-465.4594105,1474.271513,2326.772451,59.7,65.31523087,60.12,66.05695575,0,0.028408756,0,-0.185576018
202,-10,0.7,3,56,1752,-14646,1434,-1141,-943,-3048,3254,-7124,-2228,-724,1096,2448,59.7,65.35182641,60.12,65.92857208,0,0.036595543,0,-0.128383666
202,-10,0.7,3,56.8,572,-14412,1746,-1179,-1207,-3365,3958,-7796,-1510,-572,430,2853,59.7,65.39792325,60.12,65.84659043,0,0.046096839,0,-0.081981653
202,-10,0.7,3,57.6,322.6020761,-14262.26513,1635.917258,-1125.592593,-1272.307177,-3552.801711,2458,-8206,-180,-455,-13,3047,59.7,65.4,60.12,65.76765019,0,0.002076749,0,-0.078940243
202,-10,0.7,3,58.4,175.9677047,-14127.07069,1347.167849,-1026.407407,-1311.7647,-3696.210017,442,-9116,2372,-202,-433,3234,59.7,65.40020081,60.12,65.67923961,0,0.000200806,0,-0.088410575
202,-10,0.7,3,59.2,128,-13832,942,-973,-1325,-3814,-1559.126243,-10052.56922,2185.616934,-462.7296767,-238.5555556,3257.054112,59.7,65.41912781,60.12,65.54167117,0,0.018927002,0,-0.137568442
202,-10,0.7,3,60,2742,-10032,114,-1074,-1275,-3908,-3399.007566,-10926.28461,1749.900536,-974.1260202,122.5555556,3266.537344,59.7,65.45087219,60.10877851,65.39423182,0,0.031744385,-0.011221487,-0.147439345
202,-10,0.7,3,60.8,3630.418442,-8670.878287,-1054.434901,-1101.652806,-1134.504587,-3902.96972,-4206,-11312,1250,-1330,317,3289,59.7,65.46979919,60.06287844,65.26539835,0,0.018927002,-0.045900071,-0.128833475
202,-10,0.7,3,61.6,4468,-8126,-1784,-1112,-1028,-3889,-2544,-10178.05094,540.6296968,-1458.179114,-16.5,3832.450618,59.68961327,65.47,60.03740779,65.22496416,-0.010386729,0.000200806,-0.025470649,-0.040434187
202,-10,0.7,3,62.4,7210.209918,-9092,-527.9099603,-1073,-1062.260743,-3796.451561,-882,-8594,36,-1515,-350,4357,59.66473031,65.47,60.01545414,65.19687172,-0.024882964,0,-0.021953649,-0.028092437
202,-10,0.7,4,63.2,9316,-10058,1264,-1034,-1133,-3586,-1714.149669,-7695.949065,-11.19874804,-1511.384952,-253.9167534,4340.466644,59.64351109,65.47,60.00193794,65.18195071,-0.021219214,0,-0.013516202,-0.014921019
202,-10,0.7,4,64,8822,-9558,2130,-1177,-1239,-3035,-2604,-7248,-28,-1502,-118,4299,59.64,65.48167666,60,65.19855469,-0.003511093,0.011676665,-0.001937943,0.016603982
202,-10,0.7,4,64.8,7287.182254,-8361.167715,2843.053936,-1336.727537,-1375.436318,-2507.076431,-2675.974972,-7381.259259,-11.92592593,-1441.940367,-36.9628088,4111.496756,59.64,65.53548403,60,65.25910156,0,0.053807368,0,0.060546875
202,-10,0.7,4,65.6,5670,-6334,3214,-1429,-1553,-1958,-2709.682394,-7628.740741,17.92592593,-1322.018384,30.07415115,3770.126785,59.64,65.57640671,60,65.26,0,0.040922681,0,0.000898437
202,-10,0.7,4,66.4,5024,-2480,3144,-1424,-1828,-1324,-2778,-7762,34,-1198,58,3457,59.64,65.62035959,60,65.26,0,0.043952876,0,0
202,-10,0.7,4,67.2,4570,2628,2838,-1489,-1962,-733,-3182.597508,-7611,-343,-1082.578584,32.5,3254.516271,59.64,65.68089041,60,65.26,0,0.060530822,0,0
202,-10,0.7,4,68,3169.894494,2294.203957,-1015.206511,-1398.629257,-1149.205719,-482.5168288,-3792,-7460,-720,-971,7,3036,59.64,65.69,60,65.26,0,0.009109589,0,0
202,-10,0.7,4,68.8,1794,1414,-4610,-1156,175,-320,-4322,-7754,140,-880,13,2686,59.64,65.69,60,65.26,0,0,0,0
202,-10,0.7,4,69.6,1382,-1624,-3470,-252,1164,-200,-4290.197947,-8284.485866,428.4994376,-831.6408491,59.43442623,2299.861044,59.649375,65.7027881,60,65.295,0.009375,0.012788105,0,0.035
202,-10,0.7,4,70.4,-227.2157082,-1627.198463,-279.9370121,173.6055554,1260.579134,787.0210642,-4240,-8642,542,-787,101,1924,59.6755957,65.7462219,60.00257813,65.33,0.026220703,0.043433799,0.002578125,0.035
202,-10,0.7,4,71.2,-1534,-1630,2136,437,1310,2087,-4206,-7846,-34,-719,66,1607,59.69742188,65.80543196,60.050625,65.33,0.021826172,0.059210061,0.048046875,0
202,-10,0.7,4,72,-138,-1973.486957,1736.88342,589.3535077,1369.514768,2776.744313,-3941.121377,-7926.3125,-30.62621359,-646.8619895,64.10178838,1326.160179,59.7,65.87617618,60.06,65.33,0.002578125,0.070744217,0.009375,0
202,-10,0.7,4,72.8,1258,-2314,1068,720,1401,3378,-3417.178007,-8103,-19.66990291,-572.2055431,63.48753739,1051.864604,59.7,65.97114134,60.06,65.33,0,0.094965154,0,0
202,-10,0.7,4,73.6,1227.407407,-2302.074074,403.5405872,887.0795596,1380.924115,4041.58659,-2879.145634,-8279.6875,0.121359223,-498.196325,62.8795177,843.6367264,59.7,66.06178072,60.06,65.33,0,0.090639382,0,0
202,-10,0.7,4,74.4,1170.592593,-2279.925926,-265.2297064,1069.365867,1330.848229,4707.255959,-2572,-8360,30,-428,61,761,59.7,66.15397313,60.05770405,65.32732139,0,0.092192412,-0.00229595,-0.002678608
202,-10,0.7,4,75.2,1140,-2268,-570,1260,1266,5332,-2498,-7650,212,-364,31,761,59.7,66.23624373,60.01251781,65.27460411,0,0.0822706,-0.045186241,-0.052717281
202,-10,0.7,4,76,1233.247451,-2690.10336,-388,1466.020654,1161.657619,5878.420053,-2486,-8536,474,-332,67,663,59.68608398,66.29616545,60,65.27623535,-0.013916016,0.059921723,-0.01251781,0.00163124
202,-10,0.7,4,76.8,1386,-3442,-206,1670,1030,6422,-2323.236515,-8447.789748,480.0288912,-328.4827586,67,651.3220612,59.64067383,66.34386671,60,65.32921387,-0.045410156,0.047701253,0,0.052978516
202,-10,0.7,4,77.6,1502,-4174,-672,1847,905,7042,-2041.618257,-8247.135052,481.8838886,-326.5747126,67,644.9388084,59.64,66.42053261,60,65.298511,-0.000673828,0.076665902,0,-0.030702866
202,-10,0.7,4,78.4,1735.843648,-4684.652725,-1096.987854,2044.394396,755.4813788,7484.425526,-1892,-8030,488,-326,67,643,59.64,66.530535,60,65.24418292,0,0.110002388,0,-0.054328081
202,-10,0.7,4,79.2,2024,-5062,-1326,2212,605,7854,-2094,-7814,998,-346,41,707,59.64,66.69542358,60,65.18794061,0,0.164888584,0,-0.05624231
202,-10,0.7,4,80,2288,-5302,-790,2306,477,8179,-1793.214464,-7660.160528,1027.211944,-384.388931,76.5,741.3950031,59.64,66.72,60,65.18,0,0.024576421,0,-0.00794061
202,-10,0.7,4,80.8,1920,-5624.084162,-351.5660278,2372.291099,332.6561922,8474.744139,-1434,-7584,1036,-432,112,781,59.64,66.72,60,65.18,0,0,0,0
202,-10,0.7,4,81.6,1552,-6074,-124,2405,249,8729,-1348.793666,-7811.076271,814,-475.1391411,105.5,904.6105627,59.67264401,66.83969469,60,65.18,0.032644006,0.119694688,0,0
202,-10,0.7,4,82.4,1579.1875,-6969.432724,-186.5,2400.703194,251.672065,8959.438713,-1292,-8044,592,-525,99,1066,59.7,66.93801302,60,65.18,0.027355994,0.098318333,0,0
202,-10,0.7,4,83.2,1639,-8289.492307,-324,2388.458517,259.7921733,9183.36219,-1224.99187,-8052.923729,816,-595.9988016,133,1187.113325,59.7,66.8914375,60,65.18,0,-0.046575521,0,0
202,-10,0.7,4,84,1698.8125,-9617.305737,-461.5,2369.234581,273.516195,9352.854571,-1188,-8056,1040,-680,167,1320,59.7,66.84249619,60,65.19914504,0,-0.048941311,0,0.01914504
202,-10,0.7,4,84.8,1726,-10536,-524,2344,293,9420,-1283,-7801,1020,-769.4833768,158.5,1522.778299,59.7,66.79,60,65.26,0,-0.052496189,0,0.06085496
202,-10,0.7,4,85.6,1661.710681,-11102.22682,-442.5925926,2248.149131,513.2884901,9364.895204,-1378,-7546,1000,-864,150,1737,59.73497942,66.71601292,59.96502058,65.29607616,0.034979424,-0.073987079,-0.034979424,0.036076161
202,-10,0.7,4,86.4,1515.199139,-11551.22452,-291.4074074,2094.909617,982.8554335,9235.123742,-1220,-7557.52809,1157,-963.0278728,182.1428571,1897.121511,59.76,66.61597366,59.94,65.34246684,0.025020576,-0.100039262,-0.025020576,0.04639068
202,-10,0.7,4,87.2,1356,-11734,-210,2002,1482,9084,-1062,-7584,1314,-1057,225,2056,59.76,66.4608917,59.94,65.43309739,0,-0.155081959,0,0.090630553
202,-10,0.7,4,88,1196,-10686,-1116,1987,1961,8903,-1332.840848,-7649.184676,960.1928406,-1135.881162,239.6871982,2265.043718,59.76,66.38398839,59.94,65.53132955,0,-0.076903311,0,0.098232152
202,-10,0.7,4,88.8,1870,-10176,-1250,1949,2495,8523,-1710,-7724,530,-1206,255,2460,59.76,66.35034536,59.94,65.6090736,0,-0.033643025,0,0.077744051
202,-10,0.7,4,89.6,2529.768014,-10683.95343,-779.484565,1798.994141,2785.447352,8184.361734,-1872.626978,-7774.36249,401.2719223,-1268.950949,302.8329573,2595.973215,59.76,66.37831476,59.94,65.61,0,0.027969399,0,0.000926402
202,-10,0.7,4,90.4,3120,-11384,-68,1587,2917,7819,-1995.273996,-7816.403467,314.3914197,-1327.084021,371.9905066,2709.228525,59.76553711,66.44312505,59.94,65.61,0.005537109,0.064810288,0,0
202,-10,0.7,4,91.2,3576.77515,-11765.7865,455.7503377,1401.764507,2811.214792,7373.369371,-2168,-7834,260,-1384,419,2808,59.81446289,66.54790742,59.94,65.61,0.048925781,0.104782369,0,0
202,-10,0.7,4,92,3975.172369,-12072.33769,923.5418355,1215.333743,2553.207362,6847.608515,-2624.946286,-7772.467105,233.4434061,-1451.872858,432.1916542,2890.60246,59.82,66.60801412,59.91983539,65.61,0.005537109,0.060106704,-0.020164609,0
202,-10,0.7,4,92.8,4394,-12198,1126,1034,2232,6197,-2968,-7646,204,-1496,447,2970,59.82,66.63966666,59.88053498,65.61,0,0.031652534,-0.039300412,0
202,-10,0.7,4,93.6,4921.634552,-11111,1016.793706,863.7643105,1813.571852,5266.333829,-2920,-7433.390715,45.24,-1504.004065,542.4572153,3081.019793,59.84729004,66.64,59.88,65.69898926,0.027290039,0.000333341,-0.000534979,0.088989258
202,-10,0.7,4,94.4,5366,-10024,778,693,1217,4108,-2872,-7226,-90,-1507,655,3162,59.89129587,66.63554691,59.88,65.76,0.044005831,-0.004453091,0,0.061010742
202,-10,0.7,4,95.2,5584,-10598,352,509,285,2784,-3091.456573,-7110.697209,-72.88888889,-1488.333333,696.1307652,3186.274919,59.92894877,66.5851564,59.88,65.76,0.0376529,-0.050390511,0,0
202,-10,0.7,4,96,5571.095579,-10119.40741,519.0894102,157.554889,-358.0374727,1679.594642,-3520.690923,-7021.681938,-41.11111111,-1453.666667,724.2510161,3202.248571,59.96927587,66.53415976,59.88,65.76,0.040327105,-0.050996638,0,0
202,-10,0.7,4,96.8,5532.857825,-9230.592593,864.4010426,-260.1114444,-889.8221897,706.6306397,-3816,-6986,-24,-1435,773,3208,60.01551095,66.47633782,59.88,65.76,0.046235074,-0.057821939,0,0
202,-10,0.7,4,97.6,5470,-8752,1154,-462,-1426,8,-3917.444689,-7334.185928,-187,-1437.023881,970.0517197,3174.5,60.0510118,66.43143089,59.84214126,65.76,0.035500854,-0.044906937,-0.037858742,0
202,-10,0.7,4,98.4,3941.998435,-8778.444444,1344.56192,-320.4444444,-2136.373173,-378.0147563,-3962,-8178,-350,-1443,1224,3141,60.06,66.42,59.82494606,65.76577041,0.008988198,-0.011430885,-0.017195196,0.005770405
202,-10,0.7,4,99.2,689.7280516,-8827.555556,1505.947627,-57.55555556,-2851.242142,-658.5850971,-2553.036904,-10915.79341,652.8695652,-1739.735243,1403.345761,3230.418079,60.06,66.42,59.8715978,65.82019744,0,0,0.04665174,0.05442703
202,-10,0.7,4,100,-2514,-8854,1574,84,-3177,-1059,52,-14064,2082,-2105,1535,3407,60.06553711,66.41352606,59.88,65.83,0.005537109,-0.006473943,0.008402198,0.009802565
202,-10,0.7,1,0,-5689.129959,-6103,-3532,-336,-2530.27006,-1966.548626,2878,-15450,2770,-2205,1601,3639,60.09,66.37724651,59.88,65.83,0.024462891,-0.036279551,0,0
202,-10,0.7,1,0.854700855,-7570,-3352,-8638,-756,-1408,-2979,232,-16904,1362,-2413,1284,4323,60.11446289,66.31577437,59.83898438,65.8846875,0.024462891,-0.061472134,-0.041015625,0.0546875
202,-10,0.7,1,1.709401709,-4783.255995,-6866.748508,-5516.367513,-437.8112592,-141.7299399,-3685.358439,-1038,-18242,952,-2484,1364,4441,60.12,66.21052731,59.82,65.91,0.005537109,-0.105247066,-0.018984375,0.0253125
202,-10,0.7,1,2.564102564,-668,-11864,-190,177,649,-4197,-1714.558164,-17467.95023,156.0917029,-2456.079737,1478.724371,4463.650045,60.12,65.96899156,59.82,65.91,0,-0.241535747,0,0
202,-10,0.7,1,3.418803419,1576,-14250,4380,935,-214,-4464,-2210.067036,-15716.12268,-795.2874819,-2383.048363,1601.028852,4476.769467,60.12,65.87625382,59.82,65.91,0,-0.092737743,0,0
202,-10,0.7,1,4.273504274,5996,-7544,6176,446,-770,-4586,-2696,-13842,-1256,-2281,1658,4481,60.12,65.83,59.82,65.91,0,-0.046253817,0,0
202,-10,0.7,1,5.128205128,6429.355143,-9980,4458.156858,-398.377399,-270.1226796,-5140.318969,-3101.726405,-11641.72917,-901.3333333,-1989.173859,1627.148148,4457.407407,60.12,65.69476953,59.82,65.92538804,0,-0.135230471,0,0.01538804
202,-10,0.7,1,5.982905983,6566,-12416,1734,-960,302,-5604,-3498.362051,-9284.197919,-242.6666667,-1563.698041,1569.851852,4413.592593,60.12,65.59199106,59.82,65.95596934,0,-0.102778467,0,0.030581295
202,-10,0.7,1,6.837606838,4559,-10471.064,-609.1568579,-848.4988318,421.6226796,-5606.247796,-4270,-8184,112,-1346,1539,4390,60.12,65.54928185,59.82,65.97836965,0,-0.042709209,0,0.022400312
202,-10,0.7,1,7.692307692,2552,-8132,-1946,-657,469,-5607,-8912,-10054,-62,-1555,1967,4654,60.11628819,65.52386602,59.82,65.98,-0.003711808,-0.025415837,0,0.001630353
202,-10,0.7,2,8.547008547,3627,-7451.936,-1285.683233,-447.5011682,146,-5389.269375,-8854.485607,-9775.539903,227.9740572,-1472.527988,2077.973701,4080.312923,60.10066054,65.5091396,59.82,65.98,-0.015627657,-0.014726412,0,0
202,-10,0.7,2,9.401709402,4702,-7166,-168,-318,-177,-4981,-8696,-9160,752,-1361,2182,3259,60.07765535,65.49154841,59.82,66.02416853,-0.02300519,-0.01759119,0,0.044168532
202,-10,0.7,2,10.25641026,4614.217593,-7396,1002.683233,-325.7777778,-132,-4502.801466,-8032,-8024,1284,-1317,2501,2857,60.0506612,65.44839957,59.82,66.05,-0.026994141,-0.043148841,0,0.025831468
202,-10,0.7,2,11.11111111,4434,-7626,1716,-338,-87,-4007,-5508.632655,-4002.414915,1272.539951,-1013.275477,2213.648519,1842.649283,60.00944357,65.30144865,59.82,66.05,-0.041217635,-0.146950927,0,0
202,-10,0.7,2,11.96581197,4089.782407,-7451,1007.970898,-348.2222222,-95,-3593.413215,-1836.205216,1754.014765,1236.191012,-521.0482213,1559.408149,519.546864,59.98486682,65.16594556,59.81680128,66.0578745,-0.024576754,-0.135503081,-0.00319872,0.007874495
202,-10,0.7,2,12.82051282,3838,-7276,22,-354,-103,-3280,42,4686,1172,-261,850,-138,59.96899154,65.0236917,59.80390848,66.09155707,-0.015875277,-0.14225386,-0.0128928,0.033682572
202,-10,0.7,2,13.67521368,4096,-7644,-414,-296,-19,-3117,-1222,3950.942875,-2582.774111,-259.187918,-6.857674155,-102.5,59.95293225,64.92062551,59.78640768,66.14250148,-0.01605929,-0.103066194,-0.0175008,0.050944414
202,-10,0.7,2,14.52991453,4389.439781,-7810.669086,60.22258917,-259.3991826,-22.12623762,-2792.828644,-2486,2724,-6298,-257,-608,-67,59.92832577,64.9,59.77005888,66.200563,-0.024606479,-0.02062551,-0.0163488,0.058061514
202,-10,0.7,2,15.38461538,4560,-7882,700,-242,-31,-2356,-716,1738,-4612,407,-681,-773,59.89104367,64.9,59.76062208,66.25559687,-0.037282105,0,-0.0094368,0.055033872
202,-10,0.7,2,16.23931624,4522,-7822,950,-296,-74,-1844,-59.37586574,888.2694228,-1495.297969,976.8943183,-527.5,-1775.793584,59.84930999,64.9,59.76,66.30018977,-0.041733671,0,-0.00062208,0.044592899
202,-10,0.7,2,17.09401709,4556,-7829.546656,954.6625616,-252.5,-76.60334849,-1458.465884,206,26,678,1420,-374,-2762,59.82,64.9,59.76,66.35,-0.029309994,0,0,0.049810233
202,-10,0.7,2,17.94871795,4590,-7852,956,-209,-79,-1157,-456.310219,-1273.049643,771.7671713,1675.462006,-449.5,-3446.139864,59.82,64.94785156,59.76,66.43312091,0,0.047851563,0,0.083120911
202,-10,0.7,2,18.8034188,4366,-7994,472,-228,-98,-949,-1240,-2102,804,1909,-525,-4038,59.81770405,64.96464278,59.76672488,66.52717859,-0.00229595,0.016791222,0.006724885,0.094057679
202,-10,0.7,2,19.65811966,3687.373647,-8099.417817,388.4801444,-177.7555254,-82.5,-701.6233207,-1430.850209,-2107.019118,250.7407407,2245.633823,-509.4345488,-4628.804238,59.79785874,64.91833706,59.81201122,66.62200812,-0.019845308,-0.04630572,0.045286338,0.09482953
202,-10,0.7,2,20.51282051,2972,-8184,360,-115,-67,-512,-1551.861002,-2109.015063,-776.7407407,2628.078594,-471.4246532,-5189.987437,59.77251781,64.85920822,59.84676551,66.70341339,-0.025340932,-0.059128842,0.034754286,0.081405267
202,-10,0.7,2,21.36752137,2632.690012,-8262.9125,427.1875,-91.70631776,-71.53125,-421.6378878,-1654,-2114,-1330,2973,-424,-5683,59.76,64.83,59.88,66.79,-0.01251781,-0.029208223,0.033234492,0.086586612
202,-10,0.7,2,22.22222222,2376.239019,-8339.366667,575,-72.98894912,-81.5,-348.9836781,-1774.423077,-2422.327747,-1260.728346,3262.459891,-340.6216615,-6103.885638,59.80101563,64.86277994,59.92000488,66.93984747,0.041015625,0.032779938,0.040004876,0.149847466
202,-10,0.7,2,23.07692308,2162.168517,-8397.1375,722.8125,-60.52710592,-91.46875,-300.5876293,-1840,-2996,-1150,3497,-273,-6450,59.82,64.94444942,59.95031221,67.05829628,0.018984375,0.081669481,0.030307334,0.118448817
202,-10,0.7,2,23.93162393,1950,-8420,790,-56,-96,-283,-1758,-3652,-1072,3651,-263,-6701,59.82,65.09549242,59.97507467,67.14933554,0,0.151043001,0.02476246,0.09103926
202,-10,0.7,2,24.78632479,1742,-7634,760,-64,-52,-427,-1288,-4636,-1090,3845,-259,-7019,59.7955957,65.11,59.9936003,67.21681461,-0.024404297,0.01450758,0.018525627,0.067479063
202,-10,0.7,2,25.64102564,1620,-7980,818,-60,-77,-438,-1366,-5566,-1046,3922,-242,-7220,59.76,65.11,60,67.24,-0.035595703,0,0.006399703,0.023185393
202,-10,0.7,2,26.4957265,1464.699384,-8084.968664,922.9522336,-83.63892897,-77,-506.8495283,-1500.757473,-6551.141416,-934.7949021,4025.990385,-331.8538255,-7366.741137,59.76,65.11,60,67.24,0,0,0,0
202,-10,0.7,2,27.35042735,1291.114354,-8151.039888,1045.253895,-134.8334135,-77,-643.900174,-1672,-7416,-780,4090,-477,-7440,59.77131687,65.11,59.99222752,67.25508916,0.011316872,0,-0.007772479,0.015089163
202,-10,0.7,2,28.20512821,1128,-8174,1104,-184,-77,-798,-1885.55819,-8117.818604,-595.0798235,4070.012932,-585.3307943,-7430.995094,59.81555556,65.11,59.95180588,67.31407407,0.044238683,0,-0.040421644,0.058984911
202,-10,0.7,2,29.05982906,956.8323022,-8077.555556,1091.037037,-216.2906112,-80.12483812,-968.192116,-2153.212262,-8812.923368,-363.7288408,4016.152494,-689.8344999,-7405.917633,59.82,65.05305664,59.90776958,67.32,0.004444444,-0.056943359,-0.044036295,0.005925926
202,-10,0.7,2,29.91452991,794.30504,-7898.444444,1066.962963,-246.8313426,-88.80523181,-1164.668385,-2433.522846,-9447.404092,-121.6462094,3937.569833,-791.532195,-7367.673506,59.82059841,64.97,59.88,67.31885637,0.000598412,-0.083056641,-0.027769581,-0.001143633
202,-10,0.7,2,30.76923077,722,-7802,1054,-291,-102,-1353,-2685.050575,-9967.350573,95.46891296,3843.416098,-891.4449579,-7319.168599,59.86285365,64.97,59.88,67.22885594,0.042255241,0,0,-0.090000427
202,-10,0.7,2,31.62393162,1090,-7954,1336,-386,-138,-1518,-2866.356083,-10318.85261,251.9173686,3742.842438,-990.5938668,-7263.308802,59.88,65.02099233,59.88,67.14317831,0.017146346,0.050992329,0,-0.08567763
202,-10,0.7,2,32.47863248,1054,-7966,1224,-428,-154,-1677,-2936,-10448,312,3645,-1090,-7203,59.88,65.30379684,59.88,67.09204511,0,0.282804509,0,-0.051133198
202,-10,0.7,2,33.33333333,1192,-7872.849978,1046.062056,-503.326087,-151,-1896.34369,-2838.174927,-10443.78804,280.6472303,3542.311193,-1187.027225,-7128.956194,59.88,65.37763376,59.88,67.09,0,0.073836924,0,-0.002045114
202,-10,0.7,2,34.18803419,1330,-7668,904,-554,-148,-2125,-2585.889213,-10431.67443,199.7900875,3423.925428,-1280.03788,-7029.905557,59.87940159,65.4,59.88059841,67.08630979,-0.000598412,0.022366238,0.000598412,-0.00369021
202,-10,0.7,2,35.04273504,1318,-7296,866,-550,-154,-2311,-2240.927114,-10412.44255,89.2303207,3294.084355,-1371.550747,-6905.775234,59.83714635,65.4,59.92285365,66.8257358,-0.042255241,0,0.042255241,-0.260573987
202,-10,0.7,2,35.8974359,1589.913002,-7475,791.4657388,-576,-175.8383878,-2461.542421,-1865.072886,-10386.87578,-31.2303207,3157.029624,-1464.08461,-6756.49237,59.82,65.3890625,59.94,66.72600405,-0.017146346,-0.0109375,0.017146346,-0.099731756
202,-10,0.7,2,36.75213675,1996,-7654,740,-602,-203,-2557,-1520.110787,-10355.75751,-141.7900875,3017.002888,-1560.158251,-6581.984113,59.82,65.33300781,59.94,66.77691972,0,-0.056054688,0,0.050915674
202,-10,0.7,2,37.60683761,2226,-7564,960,-584,-220,-2584,-1267.825073,-10319.87112,-222.6472303,2878.245796,-1662.290454,-6382.177607,59.82,65.38247674,59.96735599,66.90961379,0,0.049468923,0.027355994,0.132694071
202,-10,0.7,2,38.46153846,2624.496642,-7648,938.4643814,-609.372807,-246.8662783,-2632.370429,-1170,-10280,-254,2745,-1773,-6157,59.82,65.47579297,60,67.02,0,0.093316237,0.032644006,0.110386208
202,-10,0.7,2,39.31623932,3054,-7732,898,-649,-281,-2693,-1187.86122,-10189.72367,-209.0619887,2627.197145,-1923.94002,-5843.747195,59.82,65.52988412,60,67.02,0,0.054091147,0,0
202,-10,0.7,2,40.17094017,3438.649845,-7514.222222,841.7670257,-673.5804987,-320.4309559,-2770.699469,-1237.296587,-10045.19882,-98.16530318,2516.768651,-2105.418906,-5403.04663,59.80748219,65.54,60.01251781,66.98870548,-0.01251781,0.010115881,0.01251781,-0.031294525
202,-10,0.7,2,41.02564103,3787.769367,-7109.777778,776.994624,-695.8218161,-365.6186994,-2852.849734,-1312.083661,-9911.074558,42.81403393,2390.955832,-2257.93834,-4869.82275,59.76229595,65.54,60.05770405,66.87573987,-0.045186241,0,0.045186241,-0.112965601
202,-10,0.7,2,41.88034188,3940,-6892,746,-724,-414,-2891,-1406,-9852,178,2227,-2322,-4279,59.76,65.50808467,60.06,66.88563584,-0.00229595,-0.031915327,0.00229595,0.009895963
202,-10,0.7,2,42.73504274,3862.043773,-7022.926344,796.1533951,-768.3530242,-466.7261962,-2875.53125,-1704.276368,-9888.314044,326.3555881,1979.062923,-2248.85739,-3459.268275,59.75982788,65.47020081,60.06,66.93534509,-0.000172119,-0.037883868,0,0.049709257
202,-10,0.7,2,43.58974359,3667.116728,-7346.803583,913.242387,-826.9527649,-524.0628542,-2841.5,-2268.900914,-10006.46213,506.1100366,1634.40505,-2050.852169,-2371.181667,59.74360474,65.48912781,60.06,66.99469898,-0.016223145,0.018927002,0,0.059353891
202,-10,0.7,2,44.44444444,3413.631319,-7760.279031,1047.210185,-889.8261231,-582.1180851,-2807.46875,-2908.787276,-10220.2532,680.286691,1219.915715,-1760.118253,-1247.460921,59.71639526,65.52087219,60.06,67.04674904,-0.027209473,0.031744385,0,0.052050057
202,-10,0.7,2,45.2991453,3160,-8160,1148,-947,-637,-2792,-3432.849092,-10543.49618,811.908897,762.4842534,-1408.789558,-320.826784,59.70017212,65.53979919,60.06,67.08947454,-0.016223145,0.018927002,0,0.042725496
202,-10,0.7,2,46.15384615,2832.933279,-8635.582,1218.451212,-1001.979794,-685.9614288,-2818.444444,-3650,-10990,864,289,-1029,176,59.7,65.54,60.06,67.06592857,-0.000172119,0.000200806,0,-0.023545966
202,-10,0.7,2,47.00854701,2470.911084,-9143.346556,1278.558939,-1054.515297,-732.9242172,-2867.555556,-571,-19607.18431,-1076,-394.6368844,-332.6728287,300.0863976,59.7,65.54078613,60.06016195,67.01496585,0,0.000786133,0.00016195,-0.05096272
202,-10,0.7,2,47.86324786,2300,-9380,1304,-1089,-784,-2894,2508,-27968,-3016,-842,172,435,59.7,65.59376465,60.07555556,66.94942615,0,0.052978516,0.015393605,-0.065539701
202,-10,0.7,2,48.71794872,3537,-8504,-169,-1107.564283,-845.7885119,-2826,-235.8401151,-18312.84179,-503.2948606,-532.8569338,-707,1378.500984,59.7,65.58079178,60.10196844,66.87108309,0,-0.012972872,0.026412889,-0.07834306
202,-10,0.7,2,49.57264957,4774,-7628,-1642,-1116,-908,-2758,-3394,-6852,3136,-63,-1586,2209,59.7,65.47535722,60.11936556,66.80112205,0,-0.105434561,0.017397112,-0.069961039
202,-10,0.7,2,50.42735043,3514,-8608,-998,-997,-960,-2781,-3920,-4486,4992,219,532,1832,59.7,65.505,60.12,66.75586913,0,0.029642784,0.000634444,-0.045252925
202,-10,0.7,3,51.28205128,3364.004379,-10295.69651,-298.7712834,-1024.814645,-1019.100853,-2898.192935,-2570.605273,-5186.518519,4267.603723,254.515051,1474.538493,1714.921858,59.7,65.53699219,60.119948,66.7080878,0,0.031992187,-5.20E-05,-0.047781329
202,-10,0.7,3,52.13675214,3206,-12324,490,-1062,-1080,-3116,247.6783422,-6487.481481,2396.096334,274.0353033,2127.713691,1640.849818,59.7,65.4809375,60.11823598,66.63264115,0,-0.056054688,-0.001712024,-0.075446647
202,-10,0.7,3,52.99145299,1168,-14300,1482,-1076,-1138,-3477,2690,-7188,-170,280,2372,1615,59.7,65.48154081,60.11443356,66.53432509,0,0.00060331,-0.003802417,-0.098316059
202,-10,0.7,3,53.84615385,-720,-18200,2590,-1157,-1458,-3651,4076,-5726,-5038,-675,1249,2574,59.7,65.53383065,60.1089903,66.41805777,0,0.052289843,-0.005443263,-0.116267319
202,-10,0.7,3,54.7008547,-202.8886692,-17937.6804,2477.995677,-1137.073032,-1480.016658,-4036.070332,4720.160721,-7183.484533,-4192.769375,-690.5523256,231.1662767,3202.581199,59.7,65.59039487,60.10235574,66.28875735,0,0.056564217,-0.006634562,-0.129300425
202,-10,0.7,3,55.55555556,652,-17306,2214,-1100,-1495,-4311,4998,-8836,-2446,-695,-317,3650,59.69770405,65.61,60.09497942,66.15134197,-0.00229595,0.019605129,-0.007376314,-0.137415378
202,-10,0.7,3,56.41025641,1275.620548,-14923.28627,1439.572264,-1065.544762,-1533.404509,-4258.888889,2721.793685,-9156.515467,609.6794549,-569.5,-318.4993622,3995.802574,59.65251781,65.61,60.0873109,66.01072979,-0.045186241,0,-0.007668519,-0.140612177
202,-10,0.7,3,57.26495726,1891.537977,-11095.27585,180.6885558,-1024.173165,-1582.195879,-4162.111111,-690,-9282,3478,-444,-319,4167,59.64,65.62855469,60.07979973,65.87183897,-0.01251781,0.018554688,-0.007511178,-0.138890823
202,-10,0.7,3,58.11965812,2644,-8586,-878,-966,-1616,-4110,-2646,-8910,4488,-451,366,4021,59.64,65.68910156,60.07289544,65.73958765,0,0.060546875,-0.00690429,-0.132251317
202,-10,0.7,3,58.97435897,3769.196684,-7771.858798,-1642.593484,-817.2535248,-1627.157084,-4247.5,-2306,-6188,1686,-1054,882,3626,59.64,65.64647466,60.06704758,65.618894,0,-0.042626903,-0.005847855,-0.120693656
202,-10,0.7,3,59.82905983,5024,-7422,-2042,-690,-1640,-4385,-9174,-18786,-920,-1311,560,4342,59.64,65.6124286,60.06270571,65.51467615,0,-0.034046059,-0.004341873,-0.104217843
202,-10,0.7,3,60.68376068,6353.420809,-7781.333333,-904.640015,-667.1630592,-1738.099181,-4197.803834,-406,-5978,-480,-1269,180,4929,59.64,65.66571759,60.06031937,65.43185228,0,0.053288992,-0.002386344,-0.082823876
202,-10,0.7,4,61.53846154,7640.599293,-8448.666667,1375.831081,-652.9148629,-1938.493392,-3760.163223,-626.194621,-6058.485006,-480.2211024,-1283.664,98.92575226,4867.368094,59.64,65.70530329,60.06,65.37662331,0,0.039585696,-0.000319366,-0.055228966
202,-10,0.7,4,62.39316239,8218,-8808,3102,-648,-2164,-3258,-1185.943863,-6268.895017,-481.0633071,-1318.632,39.20647129,4702.544281,59.64,65.73384013,60.06,65.3355776,0,0.028536844,0,-0.041045713
202,-10,0.7,4,63.24786325,7152,-7826,3758,-761,-2415,-2679,-1933.995795,-6562.662525,-482.7949606,-1360.368,-1.075685808,4464.636422,59.64,65.75413027,60.02735599,65.23677086,0,0.020290143,-0.032644006,-0.098806738
202,-10,0.7,4,64.1025641,6152.587247,-3597.962414,3576.118347,-941.4731192,-2706.581733,-1797.052149,-2719.098484,-6893.220022,-485.6844094,-1395.336,-23.83856194,4183.752375,59.64,65.76,60,65.18,0,0.005869725,-0.027355994,-0.05677086
202,-10,0.7,4,64.95726496,5200.734537,2723.796571,3060.90336,-1142.125449,-2992.235311,-834.3038521,-3390,-7214,-490,-1410,-31,3890,59.64,65.76,60,65.18,0,0,0,0
202,-10,0.7,4,65.81196581,4342,5978,2258,-1237,-3121,-382,-3934,-7562,-1140,-1194,68,3502,59.64,65.7628709,60,65.18,0,0.002870905,0,0
202,-10,0.7,4,66.66666667,3680.920268,1892,-1779.88314,-1042.764331,-1826.88857,-456.5,-3034,-7894,-1030,-1084,103,3239,59.64,65.77926638,60,65.18,0,0.01639548,0,0
202,-10,0.7,4,67.52136752,2932,-2194,-5352,-667,-6,-531,-3225.875,-7876.1875,-695.1586334,-986.8713814,97.6875,2959.407962,59.64,65.80784139,60.01095417,65.19460556,0,0.028575001,0.01095417,0.01460556
202,-10,0.7,4,68.37606838,1398.807223,-2113.147887,-3306.398302,-139.1238675,1036.917612,32.20899252,-3648,-7837,-159.6410074,-896.1783152,86,2670.042264,59.64,65.84590309,60.03676601,65.22902134,0,0.038061702,0.025811837,0.034415783
202,-10,0.7,4,69.23076923,-204,-1936,-168,333,1586,1020,-4070.125,-7797.8125,337.1971222,-808.3960914,74.3125,2368.155433,59.64,65.89075867,60.05756908,65.25675877,0,0.044855583,0.020803072,0.027737429
202,-10,0.7,4,70.08547009,-1106,-1618,1774,513,1624,1939,-4262,-7780,556,-720,69,2051,59.65898438,65.95810001,60.06,65.26,0.018984375,0.067341342,0.002430921,0.003241228
202,-10,0.7,4,70.94017094,-176.8511685,-1900,1691.69674,672.4321875,1622.733333,2682.651781,-4261.114035,-8028,415.5121951,-622.7189237,77.5,1690.015506,59.7,66.05,60.06,65.26,0.041015625,0.091899987,0,0
202,-10,0.7,4,71.79487179,1106,-2182,1478,834,1619,3353,-4258,-8276,196,-542,86,1345,59.7,66.09069742,60.06,65.26868575,0,0.040697417,0,0.008685747
202,-10,0.7,4,72.64957265,1748.635035,-1783,254.0208874,1012.532404,1470.768259,3982.771697,-4004,-7478,52,-498,70,1086,59.7,66.12880188,60.06,65.29035902,0,0.038104463,0,0.021673269
202,-10,0.7,4,73.5042735,2146,-1384,-864,1219,1249,4606,-3418.520387,-7575.134648,145,-451.8640575,88,804.3119544,59.7,66.17689024,60.06,65.31844385,0,0.048088359,0,0.02808483
202,-10,0.7,4,74.35897436,2337.216134,-1589.677223,-902.7176274,1508.408824,1123.949627,5302.83763,-2942,-7706,238,-401,106,625,59.69477085,66.24035507,60.06,65.35716529,-0.005229151,0.063464831,0,0.038721445
202,-10,0.7,4,75.21367521,2420,-1986,-916,1796,991,5962,-2867.625775,-7757.370544,179.9259259,-332.8094983,90.0294397,590.5527177,59.67136322,66.32107278,60.06,65.39945968,-0.02340763,0.080717705,0,0.042294384
202,-10,0.7,4,76.06837607,2082.737302,-2469.474436,-579,2002.198144,761.9940657,6473.386418,-2828.859414,-7794.433484,72.07407407,-257.5181321,59.1699905,569.2763589,59.64695384,66.41624435,60.0244043,65.4,-0.024409383,0.095171576,-0.035595703,0.000540325
202,-10,0.7,4,76.92307692,1602,-3026,-242,2171,511,6963,-2764,-7844,14,-203,39,562,59.64,66.52648435,60,65.39107044,-0.006953836,0.110240001,-0.024404297,-0.008929556
202,-10,0.7,4,77.77777778,1309.262698,-3561.77955,-443.5989663,2299.831711,293.402145,7532.977823,-2553.558642,-7957.817199,147.1356745,-169.1080821,33.34852802,565.9313053,59.64,66.67065381,60,65.29361471,0,0.144169457,0,-0.09745573
202,-10,0.7,4,78.63247863,1160,-4096,-828,2428,132,8100,-2215.877003,-8101.353044,451.3824602,-142.6651521,29.45204179,576.7514994,59.64,66.78969801,60,65.22209241,0,0.119044199,0,-0.071522306
202,-10,0.7,4,79.48717949,1372,-4612,-1284,2604,60,8597,-1896,-8172,784,-132,28,593,59.64,66.86909531,60,65.1804663,0,0.079397303,0,-0.041626113
202,-10,0.7,4,80.34188034,1292.653061,-5351.256661,-1208.70437,2745.198547,119.1484716,8944.079315,-1657.680401,-7744,1208.805699,-175.1173726,69.5,636.0730967,59.64,66.87,60,65.18,0,0.000904689,0,-0.000466295
202,-10,0.7,4,81.1965812,1180,-6204,-1052,2818,232,9229,-1410,-7316,1484,-257,111,712,59.64494606,66.87379951,60.00494606,65.18,0.004946061,0.003799509,0.004946061,0
202,-10,0.7,4,82.05128205,1112.346939,-7057.825896,-738.2956298,2798.171717,383.6041326,9499.006556,-1088,-7754,1274,-353,108,838,59.6915978,66.91962342,60.0515978,65.18,0.04665174,0.045823911,0.04665174,0
202,-10,0.7,4,82.90598291,1078,-7976,-506,2766,518,9706,-1047.869513,-7724,1277.670139,-437.9060306,112.3333333,991.9556226,59.7,66.97590753,60.06,65.18,0.008402198,0.056284114,0.008402198,0
202,-10,0.7,4,83.76068376,1531.09351,-8944.274776,-597,2742.272077,575.5968653,9844.461459,-1026,-7694,1288,-527,120,1164,59.7,67.02,60.06,65.18,0,0.044092466,0,0
202,-10,0.7,4,84.61538462,2170,-10106,-688,2719,616,9916,-1008.182317,-7755,1428.329861,-647.8640808,125.6030021,1346.078873,59.7,66.97967888,60.06,65.21983988,0,-0.040321118,0,0.039839881
202,-10,0.7,4,85.47008547,2466,-11836,-228,2695,649,9923,-982,-7816,1562,-763,135,1548,59.7,66.8826648,60.05505394,65.27221997,0,-0.097014086,-0.004946061,0.05238009
202,-10,0.7,4,86.32478632,2422.25,-11681.40984,-453,2625.089114,825.3986846,9837.740514,-816,-7584,1368,-837,186,1788,59.7,66.76488164,60.0084022,65.31001709,0,-0.117783151,-0.04665174,0.037797121
202,-10,0.7,4,87.17948718,2326,-11314.42623,-948,2514.773657,1183.342292,9611.891372,-992.8085106,-7502.470734,1109.579741,-938.302634,200.6131387,2018.23928,59.7030113,66.6377012,60,65.3842839,0.0030113,-0.127180444,-0.008402198,0.074266811
202,-10,0.7,4,88.03418803,2229.75,-10880.22951,-1443,2412.821371,1621.114753,9290.346543,-1296,-7470,936,-1031,214,2224,59.71870665,66.45968169,60,65.52603907,0.015695348,-0.178019512,0,0.141755165
202,-10,0.7,4,88.88888889,2186,-10524,-1668,2368,2037,8918,-1560,-7784,916,-1083,249,2383,59.74224897,66.30960596,60,65.65494961,0.023542322,-0.150075733,0,0.128910542
202,-10,0.7,4,89.74358974,3638,-10284,-1606,2405,2426,8330,-1748.052387,-7608.740741,823.3005733,-1141.103275,295.9301961,2541.367948,59.77000167,66.27331768,60.00494606,65.69,0.027752702,-0.036288274,0.004946061,0.03505039
202,-10,0.7,4,90.5982906,3697.435023,-10916.07407,-1336.899833,2313.094083,2484.215349,7852.506403,-1906.394282,-7283.259259,682.6502867,-1199.99652,354.625098,2700.51772,59.81338618,66.32121535,60.0515978,65.69,0.043384509,0.047897668,0.04665174,0
202,-10,0.7,4,91.45299145,3719.206268,-12089.92593,-846.2442001,2108.743721,2516.829897,7411.274244,-2070,-7108,610,-1245,429,2866,59.82,66.45937448,60.04460345,65.69,0.006613819,0.138159129,-0.006994348,0
202,-10,0.7,4,92.30769231,3768,-12722,-320,1899,2527,6870,-2254,-7500,920,-1271,545,3044,59.82,66.64,60,65.69,0,0.18062552,-0.044603454,0
202,-10,0.7,4,93.16239316,4128.978002,-11878.60864,341.5123793,1730.983597,2425.984037,6116.996049,-2354,-8970,1840,-1252,679,3172,59.82,66.60638081,59.97441666,65.69910144,0,-0.03361919,-0.025583335,0.009101438
202,-10,0.7,4,94.01709402,4692,-10884,762,1530,2220,5126,-2242,-8518,2244,-1210,734,3203,59.82,66.55736313,59.95267894,65.72175615,0,-0.049017675,-0.021737728,0.02265471
202,-10,0.7,4,94.87179487,5330.988764,-10627.39136,558.3743575,1235.277243,1949.902518,3693.259134,-2372,-8536.180298,817,-1363.5,885.5974576,3200.5,59.82,66.51805623,59.94076488,65.75098972,0,-0.039306901,-0.011914057,0.029233574
202,-10,0.7,4,95.72649573,5726,-10522,6,821,1556,2052,-2502,-8596,-610,-1517,1000,3198,59.82,66.47386999,59.94,65.79506432,0,-0.044186244,-0.000764881,0.044074593
202,-10,0.7,4,96.58119658,746,-26342,-2148,145,900,528,-1550,-9504,-418,-1469,905,3288,59.82,66.41173195,59.94,65.83,0,-0.062138039,0,0.034935684
202,-10,0.7,4,97.43589744,5950,-24952,-506,-488,1493,-511,-1882,-9202,-390,-1456,792,3377,59.82,66.26217503,59.94,65.83,0,-0.149556923,0,0
202,-10,0.7,4,98.29059829,6128,-2122,2248,-994,460,-2036,-3236,-8228,-128,-1507,838,3429,59.82963508,66.2,59.94,65.83,0.009635084,-0.062175027,0,0
202,-10,0.7,4,99.14529915,1979.851852,-3888.66756,3147.573828,-640.6296296,-712.7013953,-1970.407407,-3656,-8386,-216,-1570,1068,3414,59.92268953,66.2,59.94,65.83,0.093054448,0,0,0
202,-10,0.7,4,100,-5723.851852,-7422.890675,3723.231359,15.62962963,-1850.906253,-1848.592593,-2964,-10300,210,-1630,1240,3488,59.95772962,66.18031189,59.94,65.83,0.035040084,-0.019688107,0,0
202,-10,0.7,1,0,-9872,-10076,3926,369,-2362,-1783,-2660,-11906,120,-1716,1258,3587,59.97339639,66.10608643,59.94,65.83,0.015666772,-0.074225462,0,0
202,-10,0.7,1,0.78125,-9186.428321,-11357.10932,984.4444444,168.8518519,-1613,-2342.330234,-1998.315698,-13362.64092,625.037037,-1788.653465,1285.293978,3721.2889,59.98760108,66.01911848,59.92681025,65.84758633,0.014204696,-0.086967948,-0.013189749,0.017586332
202,-10,0.7,1,1.5625,-7486.634419,-12343.33244,-4478.444444,-202.8518519,-222,-3419.438246,-1175.380071,-14654.65379,1562.962963,-1851.326733,1315.035878,3871.168701,60.01167423,65.96307858,59.90059771,65.88253638,0.024073146,-0.056039904,-0.026212539,0.034950051
202,-10,0.7,1,2.34375,-5308,-12738,-7420,-403,527,-4113,-772,-15212,2068,-1878,1329,3991,60.04895633,65.92631653,59.88139745,65.90813674,0.037282105,-0.036762052,-0.019200267,0.025600356
202,-10,0.7,1,3.125,-1012.772989,-12616.81712,-3985.333333,-114.962963,325.7021588,-4292.450643,-913.8136357,-14807.7037,1857.925926,-1848.148148,1317.666667,4070.533176,60.09069001,65.82585853,59.88,65.91,0.041733671,-0.100457993,-0.001397446,0.001863261
202,-10,0.7,1,3.90625,4617.835728,-12223.1898,2393.333333,419.962963,-144.4845714,-4414.780877,-1316.781412,-13796.96296,1332.740741,-1773.518519,1289.333333,4134.469831,60.12,65.69,59.88,65.91,0.029309994,-0.135858534,0,0
202,-10,0.7,1,4.6875,7420,-11512,5828,708,-683,-4460,-1947.193633,-12483,650,-1676.5,1252.5,4189.597404,60.07898438,65.63976162,59.88,65.91,-0.041015625,-0.05023838,0,0
202,-10,0.7,1,5.46875,6648,-6226,2746,-240,-1301,-3730,-2771.340602,-11169.03704,-32.74074074,-1579.481481,1215.666667,4242.703332,60.06,65.57587632,59.88,65.91,-0.018984375,-0.063885303,0,0
202,-10,0.7,1,6.25,2780.823378,-6377.603518,1739.498332,-597.0794531,-533.5,-4413.586429,-3755.512623,-10158.2963,-557.9259259,-1504.851852,1187.333333,4300.575051,60.06,65.47883469,59.88,65.91,0,-0.097041628,0,0
202,-10,0.7,1,7.03125,-494,-6688,1060,-742,234,-5108,-4866,-9754,-768,-1475,1176,4370,60.06,65.47,59.88,65.93583147,0,-0.008834689,0,0.025831468
202,-10,0.7,1,7.8125,1065.305501,-7275.396482,179.1326597,-637.7427885,44.5,-5124.413571,-6916,-11002,-412,-1692,1324,4460,60.06,65.47,59.88,65.98,0,0,0,0.044168532
202,-10,0.7,1,8.59375,3136,-7704,-322,-505,-145,-5130,-8648.557751,-11613.79088,116.3400416,-1600,1347.119595,4102.242468,60.02496409,65.38290708,59.88,65.98,-0.03503591,-0.087092919,0,0
202,-10,0.7,2,9.375,4103.694499,-7662.588958,266.7181303,-463.4704165,-140.6959459,-4798.755018,-9558,-11882,756,-1508,1373,3472,59.99074652,65.31711405,59.88,65.98674826,-0.034217574,-0.065793035,0,0.006748259
202,-10,0.7,2,10.15625,4560,-7546,888,-430,-131,-4312,-8266,-8962,1478,-1634,1772,2878,59.97342253,65.2962651,59.88,66.03559531,-0.017323987,-0.020848943,0,0.048847048
202,-10,0.7,2,10.9375,3974,-7004,926,-386,-112,-4051,-6491.395311,-4976.849551,1799.033489,-1415.5625,1745.901035,2028.163561,59.95822824,65.28072823,59.88,66.0800625,-0.015194286,-0.015536868,0,0.044467196
202,-10,0.7,2,11.71875,3959.005919,-7014.800892,537.5378859,-403.5,-119,-3692.764571,-4400.57361,-294.7551565,2049.363101,-935,1668.819427,1008.476392,59.93720051,65.25683433,59.88,66.12481305,-0.021027738,-0.023893906,0,0.044750545
202,-10,0.7,2,12.5,3944,-7052,122,-421,-126,-3312,-2658.465104,3601.716816,2212.011163,-454.4375,1542.578105,145.0510268,59.89374155,65.21373199,59.88,66.18334916,-0.043458958,-0.043102334,0,0.058536115
202,-10,0.7,2,13.28125,3344,-8368,90,-316,-98,-2984,-1930,5230,2270,-236,1369,-236,59.88,65.15368611,59.88,66.2,-0.013741548,-0.060045882,0,0.016650837
202,-10,0.7,2,14.0625,3754,-7472,-472,-240,-55,-2721,-3086,4834,-3454,-346,831,-255,59.88,65.06956843,59.88,66.2,0,-0.08411768,0,0
202,-10,0.7,2,14.84375,3918.853248,-7478.279506,-345.952,-195.5454453,-55.29966907,-2391.40779,-2820.997872,3127.846452,-3796.612553,-210.1199713,147.9546988,-490.092192,59.8555957,64.94297375,59.8555957,66.2785054,-0.024404297,-0.126594684,-0.024404297,0.078505402
202,-10,0.7,2,15.625,4051.789905,-7499.638519,-45.376,-159.6607702,-56.33900722,-2013.240099,-2330,1522,-3900,72,-264,-975,59.82,64.82371954,59.82059841,66.42609241,-0.035595703,-0.119254211,-0.034997291,0.147587005
202,-10,0.7,2,16.40625,4150.099936,-7539.857778,313.376,-130.0033725,-58.32851083,-1617.668512,-1669.595814,1298.088323,-2323.255172,539.2951002,-64.28570052,-1919.794791,59.82,64.77136893,59.86285365,66.4673712,0,-0.05235061,0.042255241,0.04127879
202,-10,0.7,2,17.1875,4211.073312,-7602.718025,613.952,-104.2306499,-61.47867629,-1235.864617,-1206,1070,-152,1046,281,-3019,59.810625,64.76717316,59.88,66.50803779,-0.009375,-0.004195769,0.017146346,0.040666592
202,-10,0.7,2,17.96875,4232,-7692,740,-80,-66,-899,-1172,-50,768,1358,589,-3756,59.76257813,64.81930666,59.88,66.55809142,-0.048046875,0.0521335,0,0.050053634
202,-10,0.7,2,18.75,3854,-8456,568,-59,-114,-624,-1782,-1015.076092,465.1044619,1694.325012,738.9595588,-4365.841015,59.76479155,64.87003197,59.88,66.62502357,0.002213422,0.050725312,0,0.066932145
202,-10,0.7,2,19.53125,3278.465582,-7981,796,-47.32509881,-88.84745763,-465.0506352,-2392,-1714,-18,2017,813,-4886,59.78139544,64.9242091,59.88,66.7083459,0.016603891,0.054177131,0,0.083322328
202,-10,0.7,2,20.3125,2774,-7506,1024,-42,-61,-357,-1844,-2032,-356,2285,826,-5300,59.8048469,64.9907219,59.88,66.80573971,0.023451467,0.066512798,0,0.097393817
202,-10,0.7,2,21.09375,2514.700541,-7516.930029,1021.709251,-47.99448529,-56.65254237,-286.4204679,-1599.286017,-2358.140983,-600.4424964,2641.552402,772.056926,-5683.550087,59.8322907,65.08672512,59.89513686,66.9292111,0.0274438,0.096003221,0.015136861,0.123471385
202,-10,0.7,2,21.875,2370,-7552,1014,-66,-55,-232,-1429.531897,-2693.896424,-802.3483837,3034.2222,646.113852,-6040.50176,59.87240069,65.23668713,59.98746693,67.0829615,0.040109987,0.149962004,0.092330064,0.153750397
202,-10,0.7,2,22.65625,2328,-7952,850,-187,-114,-185,-1366,-3058,-942,3340,502,-6318,59.915512,65.34698638,60.0381579,67.02161001,0.043111306,0.110299256,0.050690979,-0.061351481
202,-10,0.7,2,23.4375,2094,-8318,1014,-130,-67,-267,-1472,-3480,-1018,3515,337,-6494,59.94,65.4,60.0596761,66.94063349,0.024488002,0.053013618,0.021518196,-0.08097652
202,-10,0.7,2,24.21875,1654,-8000,840,-114,-89,-240,-1285.333333,-4068.160341,-999.3333333,3690.035535,125.503935,-6717.001564,59.94,65.4,60.02888889,67.00311551,0,0,-0.030787211,0.062482015
202,-10,0.7,2,25,1468.357315,-7837.923274,848.2108593,-118.5580057,-82.7163505,-287.7245036,-938.6666667,-4772.405041,-964.6666667,3855.645278,-122.1686374,-6957.913008,59.92748219,65.37079178,59.97606311,67.12069394,-0.01251781,-0.029208223,-0.052825778,0.117578434
202,-10,0.7,2,25.78125,1344.88471,-7720.961637,870.6439408,-130.0049004,-70.21047877,-397.6712294,-752,-5502,-946,3962,-399,-7149,59.88229595,65.26535722,59.94126889,67.22624143,-0.045186241,-0.105434561,-0.034794223,0.105547483
202,-10,0.7,2,26.5625,1216,-7676,904,-145,-61,-520,-1143.374362,-6227.53714,-984,4016.529367,-735.4897985,-7267.704858,59.90735599,65.35574598,59.94,67.28992391,0.025060045,0.090388765,-0.001268887,0.063682485
202,-10,0.7,2,27.34375,1015.47046,-7691.799445,1028.42945,-168.5377286,-56.90243902,-646.5893917,-1708,-7000,-1022,4041,-1084,-7370,59.94,65.46595703,59.93932617,67.32,0.032644006,0.110211051,-0.000673828,0.030076089
202,-10,0.7,2,28.125,892,-7728,1134,-202,-55,-791,-1992,-7858,-886,3974,-1377,-7481,59.94,65.19349609,59.89391602,67.32,0,-0.272460938,-0.045410156,0
202,-10,0.7,2,28.90625,930.4375,-7839.388748,1123.861052,-248.6573679,-73.90625,-937.4101455,-1394,-8964,-486,3871,-1688,-7500,59.94,65.11,59.88,67.30968132,0,-0.083496094,-0.013916016,-0.010318675
202,-10,0.7,2,29.6875,1015,-8031.401109,1096.129472,-307.9982545,-115.5,-1089.211554,-1555.976096,-10009.33144,22.21223024,3794.344947,-1933.549701,-7465.334302,59.94,65.11,59.88,67.25261887,0,0,0,-0.057062452
202,-10,0.7,2,30.46875,1099.5625,-8213.212916,1054.833156,-365.5900139,-157.09375,-1257.907186,-1842,-10834,358,3716,-2145,-7394,59.91264401,65.27413597,59.88,67.16946619,-0.027355994,0.164135966,0,-0.083152687
202,-10,0.7,2,31.25,1138,-8294,1004,-407,-176,-1455,-2179.369732,-11401.3832,409.1597374,3591.175525,-2335.029774,-7278.292831,59.88,65.46842773,59.87932617,67.08443166,-0.032644006,0.194291769,-0.000673828,-0.085034523
202,-10,0.7,2,32.03125,944,-7498,906,-429,-150,-1723,-2398,-11678,428,3482,-2500,-7156,59.88,65.3624707,59.83391602,67.04375024,0,-0.105957031,-0.045410156,-0.040681419
202,-10,0.7,2,32.8125,1078,-8036,894,-473,-192,-1844,-2404,-11486,222,3437,-2633,-7085,59.85496438,65.33,59.82874188,66.98078904,-0.02503562,-0.032470703,-0.005174133,-0.062961206
202,-10,0.7,2,33.59375,1321.398789,-7989.224242,833.6290217,-516.0321832,-210.5292719,-1998.395623,-2378,-10472,-110,3299,-2696,-7023,59.7645919,65.33,59.87204016,66.88444075,-0.090372481,0,0.043298277,-0.096348286
202,-10,0.7,2,34.375,1667.649611,-7874.448485,728.8316292,-556.8750659,-223.0454718,-2160.912492,-2428,-10128,-382,3240,-2715,-6948,59.76,65.33,59.91020798,66.81726961,-0.004591899,0,0.038167821,-0.067171142
202,-10,0.7,2,35.15625,2076,-7730,638,-587,-238,-2266,-2254,-10112,-182,3165,-2678,-6781,59.76,65.33,59.94672279,66.79,0,0,0.036514808,-0.02726961
202,-10,0.7,2,35.9375,2746.454004,-7456.372727,568.9038279,-608.4807692,-257.2198094,-2309.616093,-1966.834194,-10423.62963,140.0552146,3071.162162,-2611.424842,-6587.619443,59.76,65.33,59.97675455,66.79,0,0,0.030031758,0
202,-10,0.7,2,36.71875,3204,-7256,532,-619,-286,-2337,-1643.528208,-11002.37037,525.0300764,2964.081081,-2513.612203,-6366.902244,59.76257813,65.33300781,60.02921353,66.8134375,0.002578125,0.003007813,0.052458981,0.0234375
202,-10,0.7,2,37.5,3182.569767,-7834.017952,738.4106047,-618.5,-382.4293765,-2354.809744,-1490,-11314,822,2850,-2388,-6093,59.7844043,65.35847168,60.11586104,66.93355469,0.021826172,0.025463867,0.086647511,0.120117187
202,-10,0.7,2,38.28125,3128,-8432,1026,-618,-471,-2369,-1559.927776,-11176.24689,1025.107819,2745.7398,-2211.055443,-5728.727704,59.810625,65.3890625,60.12,66.94,0.026220703,0.03059082,0.004138963,0.006445313
202,-10,0.7,2,39.0625,2753.727821,-8464.7829,1188.899666,-636.0219361,-490.2862587,-2380.829743,-1728.077774,-10884.27156,1189.998354,2632.924045,-1964.132672,-5254.529342,59.81845924,65.39464278,60.12,66.94084592,0.007834236,0.005580284,0,0.000845925
202,-10,0.7,2,39.84375,2128.086133,-8483.835895,1321.338722,-675.3772055,-502.6431293,-2391.891079,-1932,-10620,1258,2465,-1658,-4671,59.78158004,65.28920822,60.12,66.96404207,-0.0368792,-0.105434561,0,0.023196149
202,-10,0.7,2,40.625,1798,-8490,1376,-714,-507,-2410,-2187.152273,-10408.55558,1176.879725,2052.255104,-1194.802862,-3875.18307,59.7374876,65.27180699,60.12,66.99925926,-0.044092433,-0.017401233,0,0.035217186
202,-10,0.7,2,41.40625,2028.03861,-8180.387888,1175.032967,-743.4922392,-500.5,-2475.618335,-2522,-10292,1026,1498,-682,-2841,59.70046069,65.32559066,60.12,67.01978407,-0.037026908,0.053783672,0,0.020524807
202,-10,0.7,2,42.1875,2518,-7562,800,-774,-494,-2560,-3075.095646,-11035.45533,816.1202749,943.4038058,-283.3755151,-1358.759937,59.7,65.3742754,60.12,66.96487587,-0.000460695,0.048684742,0,-0.054908201
202,-10,0.7,2,42.96875,3582.96139,-6484.612112,272.967033,-808.4606276,-496.109589,-2612.5,-3448,-11958,676,488,91,11,59.7,65.4,60.12067383,66.86055142,0,0.025724596,0.000673828,-0.104324447
202,-10,0.7,2,43.75,4388,-5716,-80,-847,-502,-2665,-3170,-12204,1040,266,471,695,59.7,65.4,60.16608398,66.74530069,0,0,0.045410156,-0.115250726
202,-10,0.7,2,44.53125,3662,-6316.152932,2.656101426,-904.2724551,-572.890411,-2731.931731,-3372,-11182,1272,91,962,1191,59.7,65.38376465,60.18,66.72,0,-0.016235352,0.013916016,-0.025300693
202,-10,0.7,2,45.3125,2936,-7340,156,-941,-640,-2815,-3270.299695,-10877.95248,612.962963,-76.70438507,1212.983764,1493.367432,59.7,65.33078613,60.18,66.72,0,-0.052978516,0,0
202,-10,0.7,2,46.09375,3074,-8218,324,-893,-489,-2933,-2973.932724,-10705.34449,-610.962963,-228.7410814,1394.26966,1726.287318,59.7,65.40616935,60.18,66.65817423,0,0.075383214,0,-0.061825768
202,-10,0.7,2,46.875,4406,-7844,62,-869,-463,-2900,-2496,-10430,-1270,-295,1464,1894,59.7,65.47,60.18,66.55173139,0,0.063830653,0,-0.10644284
202,-10,0.7,2,47.65625,4970,-7628,-40,-898,-595,-2738,714.0871573,-9748.489637,761.3128062,-187.336413,-72.5,2028.130632,59.7,65.47,60.18,66.45665906,0,0,0,-0.095072334
202,-10,0.7,2,48.4375,4833.269939,-7940.404898,5.237214662,-908.5481474,-640.7186552,-2798.537817,3642,-8678,3262,-24,-1609,2094,59.7,65.47,60.18,66.3948565,0,0,0,-0.061802553
202,-10,0.7,2,49.21875,4469.386503,-8746.579729,129.1325724,-916.4039088,-664.8146366,-2946.767511,-24,-6678.628055,4088.687194,98.33641304,65.65546496,1975,59.7,65.47,60.18,66.3544284,0,0,0,-0.040428101
202,-10,0.7,2,50,3947.809816,-9849.964695,313.961644,-921.3077158,-690.2532996,-3132.61345,-3690,-5038,4446,165,1757,1856,59.7,65.47,60.18,66.31324105,0,0,0,-0.041187354
202,-10,0.7,3,50.78125,3338,-11054,542,-923,-740,-3306,-2494.767138,-4625.676267,2669.125,45,1785.150204,1857.731315,59.7,65.4720795,60.18,66.25267397,0,0.002079498,0,-0.060567079
202,-10,0.7,3,51.5625,2311.440769,-12670.12138,934.3339405,-922.3342697,-972.5167084,-3446.270972,204.1209648,-4323.378904,-1240,-219,1803.68907,1863.366841,59.7,65.51951412,60.18,66.10909906,0,0.047434625,0,-0.143574911
202,-10,0.7,3,52.34375,1098,-14502,1602,-920,-1265,-3622,3076.448585,-4137.392089,-5149.125,-483,1813.883401,1873.568946,59.68285365,65.57066477,60.18,65.96741698,-0.017146346,0.051150651,0,-0.141682082
202,-10,0.7,3,53.125,170,-16048,2924,-755,-1420,-3948,4792,-4074,-6926,-603,1817,1889,59.64059841,65.6095368,60.18,65.8403718,-0.042255241,0.038872025,0,-0.127045175
202,-10,0.7,3,53.90625,312.7104967,-15569.32121,2173.185185,-775.2222222,-1528.058541,-4235.881295,5416.439518,-6992,-5088.156823,-363,735.5,2408.881702,59.64,65.61,60.14735599,65.75692532,-0.000598412,0.000463201,-0.032644006,-0.083446483
202,-10,0.7,3,54.6875,690.08766,-14503.53132,778.8148148,-812.7777778,-1616.39353,-4488.551759,5694,-9910,-1630,-123,-346,3161,59.64,65.61,60.12,65.66672106,0,0,-0.027355994,-0.09020426
202,-10,0.7,3,55.46875,1226,-13406,28,-833,-1685,-4597,1037.349626,-8976,3355.156823,-238.733084,-282.4221388,3583.049991,59.64,65.61,60.12,65.51707415,0,0,0,-0.149646907
202,-10,0.7,3,56.25,2563.480789,-12240.76027,50.14662732,-789.4444444,-1730.790005,-4596.185365,-5060,-8042,6720,-490,-158,3939,59.64,65.6328618,60.12,65.41520195,0,0.022861795,0,-0.1018722
202,-10,0.7,3,57.03125,4719.759734,-11040.15084,116.7376991,-708.5555556,-1766.752973,-4593.592953,-7748.349626,-12266,3677.908283,-1076.266916,44.92213884,4252.221677,59.64,65.68920212,60.12,65.33118928,0,0.056340322,0,-0.084012669
202,-10,0.7,3,57.8125,6680,-10462,228,-665,-1817,-4589,-8996,-16490,254,-1527,187,4577,59.64,65.67615103,60.12,65.27370836,0,-0.013051089,0,-0.057480929
202,-10,0.7,3,58.59375,8395.985495,-10436.91862,1321.210489,-746.0799051,-1904.975194,-4343.727856,-1554,-5944,-220,-1345,-409,5010,59.64,65.64297374,60.12,65.26,0,-0.033177285,0,-0.013708355
202,-10,0.7,4,59.375,9350,-10410,2446,-864,-2045,-3851,-3220,-6937,385,-1337.280876,-254.3235805,4872.42659,59.64,65.61468146,60.12,65.26,0,-0.028292286,0,0
202,-10,0.7,4,60.15625,8287.296613,-9072.655295,2573.641348,-936.2813284,-2337.165996,-3188.675506,-4886,-7930,990,-1335,-40,4631,59.64,65.61314578,60.12,65.24144531,0,-0.001535677,0,-0.018554688
202,-10,0.7,4,60.9375,6274,-6486,2662,-981,-2706,-2295,-4754,-7256,926,-1427,53,4406,59.64,65.63433651,60.12,65.18089844,0,0.021190725,0,-0.060546875
202,-10,0.7,4,61.71875,3930,-3132,2790,-993,-3023,-1105,-4444.704179,-7516.814815,583.2323113,-1344.544085,65.74824857,4117.181774,59.64,65.6665583,60.0844043,65.22746094,0,0.032221793,-0.035595703,0.0465625
202,-10,0.7,4,62.5,3778.685284,3902.480358,1533.069763,-915.5,-2584.806671,-395.8288043,-4050.574312,-8001.185185,49.39393343,-1166.532614,72.81856873,3787.178231,59.64,65.70226221,60.06,65.26,0,0.035703907,-0.024404297,0.032539062
202,-10,0.7,4,63.28125,3630,8852,-934,-838,-1783,-65,-3856,-8262,-228,-997,75,3452,59.64,65.75249385,60.06,65.26,0,0.050231649,0,0
202,-10,0.7,4,64.0625,1726,2502,-4118,-1149,-939,-502,-3994.75,-8120.4375,-183.265047,-858.0790355,70.46875,3123.444905,59.64,65.76,60.06,65.26,0,0.007506146,0,0
202,-10,0.7,4,64.84375,682.1848991,457.3101568,-2992.406721,-792.0740741,-138.4066975,-20.22058025,-4300,-7809,-68.87345879,-717.492476,60.5,2790.031778,59.64,65.76,60.06,65.26,0,0,0,0
202,-10,0.7,4,65.625,-88.17149422,-841.6309625,-678.3689979,-102.9259259,588.1514194,1017.114395,-4605.25,-7497.5625,85.45485886,-597.6596785,50.53125,2452.852762,59.64,65.76,60.06,65.26,0,0,0,0
202,-10,0.7,4,66.40625,-504,-1356,1230,346,939,1998,-4744,-7356,250,-521,46,2113,59.64,65.76644531,60.06257813,65.26,0,0.006445313,0.002578125,0
202,-10,0.7,4,67.1875,-644,-1422,2174,437,977,2696,-4450,-7776,456,-487,68,1768,59.64,65.8865625,60.110625,65.26,0,0.120117187,0.048046875,0
202,-10,0.7,4,67.96875,880,-1602,1470,560,1090,3385,-4141.485043,-7688.888889,465.3381198,-405.0618664,72.85533203,1499.31043,59.64494606,65.91,60.11505394,65.26577041,0.004946061,0.0234375,0.004428939,0.005770405
202,-10,0.7,4,68.75,1890,-1486,296,652,1088,3960,-3835.537854,-7527.111111,468.3888029,-286.7107943,75.16487362,1263.503392,59.66735599,65.91,60.09264401,65.29191533,0.022409933,0,-0.022409933,0.026144922
202,-10,0.7,4,69.53125,1941.705472,-1387.467028,-276.7782269,849.826811,1058.853204,4637.700142,-3588,-7440,478,-182,81,1029,59.6915978,65.91,60.0684022,65.32019744,0.024241807,0,-0.024241807,0.028282109
202,-10,0.7,4,70.3125,1968.408291,-1302.28907,-684.6113357,1130.465243,993.7143316,5361.098305,-3424,-8072,892,-111,156,786,59.69742188,65.91663086,60.06,65.32699219,0.005824073,0.006630859,-0.008402198,0.006794752
202,-10,0.7,4,71.09375,1976,-1266,-840,1399,916,6014,-2430,-7764,690,-154,164,596,59.649375,66.06257813,60.06,65.2709375,-0.048046875,0.145947266,0,-0.056054687
202,-10,0.7,4,71.875,1877.985961,-1767.586803,-585,1629.324759,818.2884065,6548.339618,-1986.798056,-7730.639344,362.056172,-113.5123967,102,608.5,59.64,66.1759294,60.06,65.26,-0.009375,0.113351271,0,-0.0109375
202,-10,0.7,4,72.65625,1680,-2618,-330,1833,702,7034,-1798,-7720,148,-62,40,621,59.64,66.27,60.06,65.26,0,0.094070604,0,0
202,-10,0.7,4,73.4375,1402,-3334,-434,1988,583,7495,-1995,-7948,696.6853772,-41.98760331,70.5,588,59.64,66.45149513,60.06,65.26,0,0.18149513,0,0
202,-10,0.7,4,74.21875,1339.442845,-3923.426663,-716.5996284,2185.560252,671.0132176,7981.347918,-2192,-8176,1370,-33,101,555,59.64,66.60245471,60.06,65.25340525,0,0.150959582,0,-0.006594749
202,-10,0.7,4,75,1302.276978,-4458.697552,-1093.522036,2398.013188,850.8042129,8472.677266,-2057.703704,-7891.333333,1580.561532,-83.98880643,96.85185185,567.2753243,59.64,66.68682272,60.06,65.19120293,0,0.084368003,0,-0.06220232
202,-10,0.7,4,75.78125,1290,-5016,-1282,2559,996,8916,-1808.296296,-7362.666667,1724.061847,-186.7553906,89.14814815,599.9950931,59.64,66.7770434,60.06,65.2028618,0,0.090220685,0,0.011658864
202,-10,0.7,4,76.5625,1391.384491,-5663.324173,-716,2667.055036,1081.943464,9326.494815,-1674,-7078,1816,-266,85,647,59.64,66.86382841,60.06,65.25920212,0,0.086785013,0,0.056340322
202,-10,0.7,4,77.34375,1632,-6268,-150,2726,1125,9625,-1934,-8174,1868,-298,99,751,59.64,66.91171762,60.06,65.26,0,0.04788921,0,0.000797883
202,-10,0.7,4,78.125,2192,-6710,-276,2735,1033,9752,-1825.636364,-7924.948276,1829.494737,-317.7147294,108.3989537,826.8072344,59.64279489,66.95452362,60.06,65.26,0.002794891,0.042805993,0,0
202,-10,0.7,4,78.90625,2500.384517,-8280.800777,-190.5162312,2728.863818,869.0944348,9826.083954,-1678,-7634,1744,-335,120,887,59.68119543,67.01273725,60.06,65.26,0.038400534,0.058213633,0,0
202,-10,0.7,4,79.6875,2730.731591,-10906.04754,42.96753761,2710.505413,674.6415102,9881.930866,-1618,-7580,1584,-355,151,932,59.7336205,67.06642156,60.06,65.26,0.052425077,0.053684306,0,0
202,-10,0.7,4,80.46875,2998,-13448,390,2680,562,9904,-1936,-7382,1490,-388,85,1074,59.76,67.09,60.06,65.26,0.026379497,0.023578443,0,0
202,-10,0.7,4,81.25,3378,-15488,1258,2554,540,9641,-2034,-7648,1546,-434,98,1150,59.72214126,67.02576696,60.06,65.29087048,-0.037858742,-0.06423304,0,0.03087048
202,-10,0.7,4,82.03125,2536.731206,-14771.52863,945.2586207,2484.751198,689.4242557,9402.990092,-1778.846491,-7919.100094,1588.5,-503.9071244,155.3827504,1268.55268,59.7,66.89466433,60.06,65.3502275,-0.022141258,-0.131102633,0,0.059357025
202,-10,0.7,4,82.8125,1524,-13420,170,2409,1030,9089,-1384,-8076,1610,-587,203,1432,59.7,66.6702505,60.06,65.44102121,0,-0.224413829,0,0.090793703
202,-10,0.7,4,83.59375,1296,-11866,-1934,2232,1723,8365,-1069.153509,-8084.918182,1433.566524,-675.5043976,178,1686.983678,59.71371094,66.37002875,60.06,65.49934767,0.013710938,-0.300221748,0,0.058326458
202,-10,0.7,4,84.375,1444.650754,-11894.51852,-1435.024924,2085.997288,2079.549037,7982.930761,-894,-8088,1224,-765,153,1973,59.76,66.12,60.06,65.54,0.046289062,-0.25002875,0,0.040652334
202,-10,0.7,4,85.15625,1751.523731,-11947.48148,-470.2720693,1952.129616,2337.607852,7702.546713,-911.7494929,-8079.980673,1167.433476,-844.6252982,166.2356406,2227.379249,59.79800745,66.15819009,60.06,65.59400391,0.038007452,0.038190088,0,0.054003906
202,-10,0.7,4,85.9375,2008,-11976,162,1804,2437,7350,-968,-8054,1144,-925,196,2429,59.83612218,66.24479645,60.06,65.61,0.038114732,0.086606363,0,0.015996094
202,-10,0.7,4,86.71875,2150.551184,-11876.92041,319.0694938,1625.07604,2401.861503,6820.404925,-1538,-7726,1242,-1016,254,2538,59.87487089,66.39710234,60.06,65.61,0.038748705,0.152305886,0,0
202,-10,0.7,4,87.5,2267.054632,-11624.50749,420.6197725,1426.858468,2314.500783,6150.750292,-2193.945818,-7704.768532,1148.454545,-1085.05457,273.0448777,2668.458634,59.88,66.42,60.04101563,65.65746094,0.005129112,0.022897663,-0.018984375,0.047460938
202,-10,0.7,4,88.28125,2376,-11286,512,1225,2202,5380,-2844,-7686,948,-1140,294,2767,59.88,66.42,60,65.76,0,0,-0.041015625,0.102539063
202,-10,0.7,4,89.0625,2484.639017,-10564.13503,628.3528975,1022.12689,2027.77242,4429.001247,-3534.086192,-7439.77821,502.5454545,-1189.78,437.1575384,2804.474048,59.84214126,66.28118461,60,65.76,-0.037858742,-0.138815388,0,0
202,-10,0.7,4,89.84375,2582,-9874,694,818,1801,3354,-3928,-7212,164,-1216,592,2827,59.82,66.20645996,60,65.76645996,-0.022141258,-0.074724651,0,0.006459961
202,-10,0.7,4,90.625,2665.932353,-9684.217398,434,606.0636716,1566.930546,2192.09311,-3747,-7241,338,-1190.871795,643.1590296,2838.372715,59.82,66.26354004,60,65.82354004,0,0.057080078,0,0.057080078
202,-10,0.7,4,91.40625,2738,-9500,174,421,1308,1147,-3566,-7270,512,-1146,665,2852,59.82,66.18881539,59.99341746,65.82232037,0,-0.074724651,-0.006582536,-0.001219665
202,-10,0.7,4,92.1875,2809.426993,-8838.690016,214.4444444,272.3819372,1025.473733,399.950037,-3704,-5970,2,-1102,565,2910,59.82,66.05,59.97,65.795,0,-0.138815388,-0.023417464,-0.027320375
202,-10,0.7,4,92.96875,2873.935719,-7897.303296,289.5555556,146.1351578,719.962106,-223.5304257,-3816,-6500,-358,-1245,431,2917,59.85785874,66.05,59.94658254,65.76767963,0.037858742,0,-0.023417464,-0.027320375
202,-10,0.7,4,93.75,2902,-7386,330,80,392,-765,-3642,-7992,40,-1183,420,2815,59.88,66.05,59.94,65.76,0.022141258,0,-0.006582536,-0.007679625
202,-10,0.7,4,94.53125,2786,-7350,-32,65,24,-1217,-3792.888889,-8837.887081,562.2849516,-1200.388527,510.0659515,2671.594695,59.88,66.05,59.94,65.76,0,0,0,0
202,-10,0.7,4,95.3125,2946,-7646,-134,58,-196,-1450,-4073.111111,-9469.549879,1102.702631,-1241.999275,691.6874585,2518.502265,59.88695384,66.02270635,59.94,65.78847168,0.006953836,-0.027293648,0,0.02847168
202,-10,0.7,4,96.09375,3106,-7886,80,51,-445,-1748,-4224,-9786,1368,-1292,832,2440,59.91136322,65.92133714,59.94,65.83,0.024409383,-0.101369209,0,0.04152832
202,-10,0.7,4,96.875,3374.225139,-7531.568,312.9626068,13.82063755,-565.3742648,-1746.708039,-3274,-9866,1386,-1357,889,2432,59.93477085,65.80696075,59.94,65.83,0.02340763,-0.114376392,0,0
202,-10,0.7,4,97.65625,3736.283282,-6686.384,547.6329287,-59.44678276,-659.2529628,-1741.844118,-1958,-9024,930,-1529,965,2592,59.94,65.74160911,59.94,65.84120293,0.005229151,-0.065351639,0,0.011202931
202,-10,0.7,4,98.4375,4104.028855,-5677.616,829.2219473,-143.3245218,-732.4445284,-1731.926177,-2176.266459,-8699.192475,599.7176279,-1591.373372,989.263505,2810.139364,59.94,65.70484061,59.94,65.90340525,0,-0.0367685,0,0.06220232
202,-10,0.7,4,99.21875,4389.316285,-4832.432,1202.940644,-212.3348406,-790.757396,-1715.472157,-2653.644028,-8482.707348,330.969925,-1632.297797,1003.539602,3044.039663,59.94,65.63897429,59.94,65.91,0,-0.06586632,0,0.006594749
202,-10,0.7,4,100,4504,-4478,1714,-241,-840,-1691,-3124,-8404,220,-1647,1024,3184,59.94,65.54,59.94,65.91,0,-0.098974293,0,0
202,-10,0.7,1,0,-2990,-10120,2958,-142,-877,-160,-3556.533933,-8556.534328,222.7398686,-1631.4,1060.745815,3227.689814,59.94,65.38157605,59.94,65.91,0,-0.158423947,0,0
202,-10,0.7,1,0.81300813,-4470.674487,-7827,701.7552273,9.186023622,-1470.838874,-610.0534688,-4041.120674,-8979.442983,231.2596058,-1594.2,1112.585704,3253.481372,59.94,65.33,59.94,65.91,0,-0.051576053,0,0
202,-10,0.7,1,1.62601626,-4988,-5534,-2756,106,-2033,-1348,-4492.640449,-9620.684474,246.0094087,-1549.8,1178.752685,3272.728024,59.94,65.33,59.94,65.91,0,0,0,0
202,-10,0.7,1,2.43902439,-2828,-6288,-4888,-539,-1053,-1910,-4825.973483,-10428.21731,267.4394744,-1512.6,1258.479778,3296.783117,59.94,65.33,59.94,65.91,0,0,0,0
202,-10,0.7,1,3.25203252,-3880,-12530,-2092,-94,-555,-2680,-4956,-11350,296,-1497,1351,3337,59.94,65.33,59.94,65.91,0,0,0,0
202,-10,0.7,1,4.06504065,-2046,-11242,862,584,-785,-3321,-4157.923358,-12920.15393,415.8697037,-1634.571369,1535.165282,3439.748552,59.93219877,65.28476509,59.94,65.94790534,-0.007801233,-0.045234906,0,0.037905336
202,-10,0.7,1,4.87804878,-647.8557737,-8828.608158,3707.482133,547.1043537,-918.348135,-3739.576154,-2464,-15006,706,-1800,1670,3557,59.91278044,65.18141685,59.94,65.99667475,-0.019418323,-0.103348247,0,0.048769417
202,-10,0.7,1,5.691056911,458,-7184,5270,432,-980,-4002,294,-17154,1786,-1837,1470,3624,59.88772309,65.06848996,59.94,66.03744551,-0.02505735,-0.112926885,0,0.040770758
202,-10,0.7,1,6.504065041,1236,-10186,2288,-587,-686,-4104,316,-15716,2704,-1823,1072,3959,59.84994487,64.96363975,59.94,66.0800625,-0.037778222,-0.104850211,0,0.042616991
202,-10,0.7,1,7.317073171,2385.544319,-9284.782196,-110.3535541,-734.9332658,-244.3484163,-4620.194952,-1514,-13716,1446,-1971,892,4036,59.82,64.9,59.94059841,66.12481305,-0.029944872,-0.06363975,0.000598412,0.044750545
202,-10,0.7,1,8.130081301,3114,-8192,-1348,-784,37,-5058,-3387.203148,-10931.25039,-106.4839744,-2153.776097,906.3375242,4074.635299,59.82,64.9,59.98285365,66.18334916,0,0,0.042255241,0.058536115
202,-10,0.7,1,8.943089431,3107.75,-7841.177559,-946.3598985,-700.25,20.125,-4968.461409,-5618,-9200,-1034,-2263,942,4113,59.82,64.9,60,66.2,0,0,0.017146346,0.016650837
202,-10,0.7,1,9.756097561,3094,-7567.435608,-47.79306267,-516,-17,-4744.89709,-9036,-10226,-916,-2181,1040,4188,59.82,64.9,60,66.2,0,0,0,0
202,-10,0.7,2,10.56910569,3080.25,-7389.475853,888.1703045,-331.75,-54.125,-4454.884226,-9099.721806,-10026.3989,-108.8209113,-2084.514956,1186.602767,3734.939417,59.82,65.01388672,60,66.25111463,0,0.113886719,0,0.051114632
202,-10,0.7,2,11.38211382,3074,-7326,1402,-248,-71,-4166,-9118,-9608,1150,-1998,1385,3007,59.82,65.1786037,60,66.35555191,0,0.164716986,0,0.104437283
202,-10,0.7,2,12.19512195,3860,-7460.765676,1531.396531,-336.5,-50,-3869.620626,-7214,-8952,2306,-1944,1682,2486,59.82,65.08000814,60,66.39720683,0,-0.098595563,0,0.041654916
202,-10,0.7,2,13.00813008,4646,-7682,1586,-425,-29,-3538,-5659.269316,-7154.346331,3237.203091,-1826.001754,1955.283586,1822.263543,59.82,65.04,60,66.43611358,0,-0.040008142,0,0.038906745
202,-10,0.7,2,13.82113821,4570.0625,-7883.65223,1312.875,-404.7065162,-30.31578947,-3184.397035,-4302,-4146,3718,-1617,2103,1064,59.82,65.04,60,66.47899372,0,0,0,0.042880144
202,-10,0.7,2,14.63414634,4403,-8102.468649,712,-355.0507099,-33.34210526,-2808.335444,-2839.993841,2457.632553,3133.257118,-930.7769108,1849.669753,4.431926372,59.8403216,65.04,60.02735599,66.55922777,0.020321596,0,0.027355994,0.080234044
202,-10,0.7,2,15.44715447,4235.9375,-8278.050743,111.125,-292.8695487,-36.69736842,-2428.106132,-2018,7366,1538,-374,1259,-665,59.88358486,65.04069815,60.06,66.64588701,0.043263261,0.000698148,0.032644006,0.086659244
202,-10,0.7,2,16.2601626,4160,-8350,-162,-235,-39,-2062,-4296,3802,-4844,-996,-36,-521,59.92133932,65.08999593,60.06,66.68975431,0.037754469,0.049297781,0,0.043867301
202,-10,0.7,2,17.07317073,4198,-8062,660,-183,-40,-1719,-3120.398627,2212.623778,-4413.093228,-376.9567349,-402.0163043,-914.956,59.95031996,65.10699219,60.050625,66.75171249,0.028980632,0.016996258,-0.009375,0.061958182
202,-10,0.7,2,17.88617886,4212.232673,-8287,926.2146926,-169.2177111,-68.93771331,-1337.668851,-1360,1310,-3386,485,-540,-1713,59.9756023,65.08152832,60.00257813,66.85294219,0.025282347,-0.025463867,-0.048046875,0.101229694
202,-10,0.7,2,18.69918699,4218,-8512,1030,-158,-97,-988,-354,906,-960,866,-45,-2843,59.99441692,65.0509375,60,66.92777107,0.018814614,-0.03059082,-0.002578125,0.074828889
202,-10,0.7,2,19.51219512,3831.185185,-8402.983969,914.0008125,-134.6796692,-88.63363363,-692.1488162,-341.7690718,2.877617929,-514.5153559,1179.56954,-53.07379135,-3698.317803,60,65.04,60,66.99080156,0.005583083,-0.0109375,0,0.06303049
202,-10,0.7,2,20.32520325,3112.814815,-8149.523494,696.6682917,-105.024313,-70.93393393,-433.402378,-335.6623137,-1177.891712,-258.1465668,1459.739563,-73.81424936,-4430.206614,60,65.04,60,67.05137798,0,0,0,0.060576414
202,-10,0.7,2,21.13821138,2726,-7862,574,-80,-55,-287,-334,-1936,-176,1714,-102,-5075,59.990625,65.0290625,60,67.11761811,-0.009375,-0.0109375,0,0.066240128
202,-10,0.7,2,21.95121951,2758,-7540,568,-64,-45,-244,-1464,-2148,-1318,1936,-154,-5620,59.94257813,64.97300781,60,67.19067423,-0.048046875,-0.056054688,0,0.07305612
202,-10,0.7,2,22.76422764,2213.11588,-7585.214708,779.7571429,-52.62676056,-65.5,-181.4443794,-1284,-2295.10965,-1437.900766,2334.791087,-354.7794344,-5940.175685,59.94,64.97,60,67.26279023,-0.002578125,-0.003007813,0,0.072116007
202,-10,0.7,2,23.57723577,1542,-7718,1054,-47,-86,-142,-1104,-2462,-1476,2737,-638,-6237,59.9395459,64.97438818,60,67.32564711,-0.000454102,0.004388184,0,0.062856875
202,-10,0.7,2,24.3902439,1370,-8494,1144,-96,-63,-154,-1444,-2798,-970,2967,-885,-6652,59.90277832,65.28248486,60,67.3765548,-0.036767578,0.30809668,0,0.050907691
202,-10,0.7,2,25.20325203,1286,-8330,1042,-107,-69,-238,-1203,-3546.493302,-1066,3109.695679,-1109.658671,-6924.495714,59.85722168,65.43401904,59.98987972,67.42100667,-0.045556641,0.15153418,-0.010120277,0.044451868
202,-10,0.7,2,26.01626016,954.0988593,-8154.863819,1062.371795,-128.3718258,-65,-301.7105826,-962,-4478,-1162,3227,-1308,-7152,59.8204541,65.46965479,59.94377943,67.46436767,-0.036767578,0.035635742,-0.04610029,0.043361004
202,-10,0.7,2,26.82926829,684,-8026,1098,-157,-61,-376,-1199.687729,-5279.474265,-1085.856502,3369.654639,-1467.905278,-7390.12161,59.82,65.47,59.90204965,67.56310626,-0.000454102,0.000345215,-0.041729779,0.09873859
202,-10,0.7,2,27.64227642,685.5555556,-7975.079355,1138.005698,-189.137608,-62.13941967,-519.5968649,-1572,-6096,-922,3452,-1613,-7581,59.81932617,65.46915029,59.88,67.63,-0.000673828,-0.000849713,-0.022049654,0.066893739
202,-10,0.7,2,28.45528455,688.4444444,-7941.42268,1180.336182,-225.8367712,-64.61217268,-722.4669818,-1853.190085,-6984.15625,-627.4570291,3446.735849,-1760.349799,-7699.46601,59.77391602,65.39161367,59.88,67.63,-0.045410156,-0.077536615,0,0
202,-10,0.7,2,29.26829268,690,-7906,1200,-265,-67,-936,-2054,-7906,-270,3434,-1899,-7781,59.76,65.23697183,59.88,67.63,-0.013916016,-0.154641845,0,0
202,-10,0.7,2,30.08130081,684.6875,-7853.259934,1192.5728,-310.2991352,-68.39487063,-1155.272455,-2120.119756,-8944.199131,79.25583905,3398.409984,-2028.580861,-7829.213541,59.76,65.00041692,59.88,67.63,0,-0.236554911,0,0
202,-10,0.7,2,30.89430894,673,-7792.675497,1170.027467,-361.018262,-69.43037688,-1392.648861,-2194,-9784,290,3346,-2138,-7872,59.76,64.87533686,59.90272505,67.63,0,-0.125080057,0.022725046,0
202,-10,0.7,2,31.70731707,661.3125,-7742.753311,1131.9684,-408.4782578,-71.00069469,-1625.450837,-2518,-10172,304,3293,-2213,-7930,59.76,64.83121643,59.94795984,67.62350358,0,-0.044120426,0.045234795,-0.006496422
202,-10,0.7,2,32.5203252,656,-7722,1078,-444,-74,-1831,-2836.278226,-10218.46427,361.2621457,3236.69561,-2244.183654,-7894.802296,59.76,64.86886834,59.99125812,67.47564155,0,0.037651906,0.043298277,-0.14786203
202,-10,0.7,2,33.33333333,1164,-7994,878,-465,-103,-1996,-3160.580645,-10242.07527,460.3441296,3178.385645,-2264.023758,-7806.722789,59.76,64.94409323,60,67.34871325,0,0.075224887,0.008741882,-0.126928298
202,-10,0.7,2,34.14634146,1276.929331,-7959.983754,892.3683409,-492.6006749,-107.5886322,-2173.139798,-3412.592742,-10258.64863,554.2540486,3120.382858,-2281.851983,-7692.031887,59.76,65.03637756,60,67.25844384,0,0.092284338,0,-0.090269406
202,-10,0.7,2,34.95934959,1333.070669,-7862.411952,928.0700152,-522.7727784,-109.8054272,-2354.263336,-3514,-10284,596,3065,-2307,-7577,59.76,65.12520782,60,67.16440106,0,0.088830258,0,-0.09404278
202,-10,0.7,2,35.77235772,1446,-7708,974,-546,-113,-2521,-3472.331351,-10334.82026,394.8148148,3012.482613,-2358.000801,-7460.648137,59.76229595,65.19155162,60,67.07131072,0.00229595,0.0663438,0,-0.093090341
202,-10,0.7,2,36.58536585,1954,-7208,1046,-559,-120,-2662,-3364.884923,-10392.52124,21.18518519,2961.94432,-2419.278178,-7327.926659,59.80748219,65.24896982,60,66.97637861,0.045186241,0.057418202,0,-0.094932111
202,-10,0.7,2,37.39837398,1922.757396,-7341.338279,1130.422151,-610.9078791,-171.0671574,-2768.029967,-3218,-10420,-180,2914,-2449,-7184,59.80608398,65.26,60.01391602,66.90998735,-0.001398206,0.011030175,0.013916016,-0.066391266
202,-10,0.7,2,38.21138211,1834,-7588,1180,-692,-249,-2886,-2846.543897,-10084,-153.1866479,2874.535651,-2380.400257,-7037.138869,59.76067383,65.26,60.05932617,66.87044455,-0.045410156,0,0.045410156,-0.039542799
202,-10,0.7,2,39.02439024,1402,-7856,946,-784,-315,-3093,-2554,-9748,-94,2827,-2232,-6851,59.76,65.21647466,60.06,66.87,-0.000673828,-0.043525341,0.000673828,-0.000444547
202,-10,0.7,2,39.83739837,2010.454484,-7604.471564,697.0115512,-773.1822799,-288.5,-3200.196113,-2566.520443,-9793.3174,50.81381865,2748.253644,-1969.46158,-6588.10153,59.76,65.18,60.06229595,66.87,0,-0.036474659,0.00229595,0
202,-10,0.7,2,40.6504065,2948,-7258,538,-755,-262,-3248,-2600.841329,-9912.992201,302.505546,2635.70291,-1550.105975,-6246.980487,59.76,65.18,60.10748219,66.87,0,0,0.045186241,0
202,-10,0.7,2,41.46341463,3678.154991,-7069.383886,504.2857586,-736.7870579,-290.4684432,-3175.407407,-2652.101993,-10082.6083,581.190364,2487.125353,-1047.51958,-5819.908678,59.75606323,65.18524902,60.12,66.87196,-0.003936768,0.005249023,0.01251781,0.00196
202,-10,0.7,2,42.27642276,4344.633051,-6918.025276,483.2539904,-718.393529,-354.9368864,-3040.592593,-2715.441772,-10277.7496,806.9834547,2300.298531,-535.2887895,-5299.157913,59.73280884,65.21625488,60.12,66.88512,-0.023254395,0.031005859,0,0.01316
202,-10,0.7,2,43.08943089,4636,-6856,476,-710,-424,-2968,-2786,-10474,900,2073,-87,-4677,59.70735718,65.25019043,60.12,66.905,-0.02545166,0.033935547,0,0.01988
202,-10,0.7,2,43.90243902,3342,-7758,982,-733,-491,-2981,-2926.095066,-10674.42169,733.955211,1624.523089,368.016687,-3630.573423,59.7,65.26,60.12,66.92488,-0.007357178,0.00980957,0,0.01988
202,-10,0.7,2,44.71544715,2302.357997,-7747.368744,1764.42838,-783.3887657,-625.383529,-3090.573003,-3110.269755,-10917.51033,367.0215332,976.2296437,805.1740468,-2187.549658,59.7,65.26,60.12,66.93804,0,0,0,0.01316
202,-10,0.7,2,45.52845528,1422.734554,-7719.404154,2623.547523,-846.1943829,-791.0173243,-3272.286501,-3202,-11232,-4,429,1008,-866,59.7,65.24144531,60.12,66.94,0,-0.018554688,0,0.00196
202,-10,0.7,2,46.34146341,1052,-7680,3028,-877,-884,-3368,-2980,-11748,-316,98,1016,121,59.7,65.18089844,60.12,66.94,0,-0.060546875,0,0
202,-10,0.7,2,47.15447154,1589.5,-7557.285367,2303,-873.3541667,-903.5756178,-3351.796661,-2936,-11604,-64,-205,1112,1023,59.7,65.20948497,60.12,66.94,0,0.028586528,0,0
202,-10,0.7,2,47.96747967,2772,-7343.420326,708,-862.2777778,-918.0116603,-3315.541096,-2402.030623,-10192.38607,1149.110677,-186.7758003,651.5555556,1538.771344,59.69936556,65.27403956,60.12257813,66.93798373,-0.000634444,0.064554594,0.002578125,-0.002016275
202,-10,0.7,2,48.7804878,3954.5,-7140.345122,-887,-843.5625,-926.9418726,-3277.764983,-1255.025958,-7814.526368,3183.888925,-139.4404896,-203.5555556,1924.996783,59.68196844,65.37822525,60.170625,66.89113618,-0.017397112,0.104185687,0.048046875,-0.04684755
202,-10,0.7,2,49.59349593,4492,-7050,-1612,-817,-930,-3257,42,-6558,4800,-74,-664,2077,59.65555556,65.50395255,60.18,66.84416214,-0.026412889,0.125727306,0.009375,-0.046974033
202,-10,0.7,2,50.40650407,4226,-8184,-822,-718,-919,-3253,1807.940121,-8120.296296,5798.370032,103.1812303,361.8888889,1744.62963,59.64016195,65.60335121,60.18,66.79598415,-0.015393605,0.099398661,0,-0.048177991
202,-10,0.7,2,51.2195122,3827.278215,-9628.439724,-227.9551082,-763.8888889,-981.6005049,-3289.410574,3811.85895,-11021.7037,6611.851683,358.0350596,2267.111111,1127.37037,59.64,65.66600567,60.18,66.71654626,-0.00016195,0.06265446,0,-0.079437893
202,-10,0.7,3,52.03252033,3300.110748,-11334.11947,283.7637551,-849.1111111,-1121.312121,-3383.154482,4766,-12584,6948,488,3293,795,59.64,65.69,60.18257813,66.62200464,0,0.023994325,0.002578125,-0.09454162
202,-10,0.7,3,52.84552846,2642,-13318,788,-895,-1266,-3511,4396,-8662,1470.22264,114.7988368,2836.111344,1538.378262,59.64,65.69,60.230625,66.53104238,0,0,0.048046875,-0.090962254
202,-10,0.7,3,53.65853659,1434.720697,-16556.15862,1435.360685,-846.9625,-1413.796443,-3770.660712,4026,-4740,-4478,-501,2010,2482,59.64,65.69,60.24,66.41782814,0,0,0.009375,-0.113214246
202,-10,0.7,3,54.47154472,494,-18730,1820,-769,-1527,-4083,5524,-5562,-5042,-979,1170,2764,59.64,65.69,60.24,66.28320924,0,0,0,-0.134618896
202,-10,0.7,3,55.28455285,341.1755725,-18269.96198,1682.387434,-720.2541021,-1559.940548,-4354.127392,6392,-9410,-2448,-754,77,3313,59.64,65.69,60.24,66.15065419,0,0,0,-0.132555048
202,-10,0.7,3,56.09756098,284,-17076,1338,-655,-1595,-4504,3282,-10934,306,-327,-638,4053,59.64,65.69,60.24,66.01639812,0,0,0,-0.134256071
202,-10,0.7,3,56.91056911,1102,-13214,370,-468,-1730,-4451,-2309.535406,-12251.3267,732.7264688,-617.4197255,-614.7994254,4661.543941,59.64,65.69,60.24,65.88274779,0,0,0,-0.133650335
202,-10,0.7,3,57.72357724,2641.639725,-10566.12356,-929.6001974,-465.3225377,-1797.960191,-4388.6537,-8809.989925,-13397.88557,972.8076788,-1211.617229,-545.3766285,5181.049748,59.64,65.6671382,60.22285365,65.74846601,0,-0.022861795,-0.017146346,-0.134281777
202,-10,0.7,3,58.53658537,4660,-9272,-1728,-463,-1828,-4352,-11930,-13888,1048,-1694,-430,5401,59.64,65.61079788,60.18059841,65.62069865,0,-0.056340322,-0.042255241,-0.127767363
202,-10,0.7,3,59.3495935,7455.786693,-9530,-816.2708794,-393.7943262,-1754,-4452,-932,-3342,412,-1922,47,5344,59.64,65.65746094,60.18,65.52779106,0,0.046663054,-0.000598412,-0.092907586
202,-10,0.7,3,60.16260163,9408,-9788,568,-327,-1680,-4552,-1558,-7100,-1286,-1653,-401,5596,59.64494606,65.68340525,60.18,65.44119061,0.004946061,0.025944314,0,-0.086600449
202,-10,0.7,4,60.97560976,9614,-8194,1396,-438,-1843,-4002,-2577.239453,-7302.188642,-1015.655533,-1538.085998,-314.2467927,5407.318925,59.6915978,65.62120293,60.18,65.34349652,0.04665174,-0.06220232,0,-0.097694097
202,-10,0.7,4,61.78861789,8100,-6564,1882,-501,-2066,-3197,-3718.841949,-7389.504616,-492.8666208,-1461.597379,-137.7158075,4985.304516,59.68285365,65.65286587,60.16285365,65.33,-0.008744148,0.031662935,-0.017146346,-0.013496517
202,-10,0.7,4,62.60162602,5978.643157,-4589.128393,2199.389388,-551.0120958,-2399.690186,-2355.34767,-4260,-7502,-150,-1365,3,4546,59.64059841,65.75850397,60.12059841,65.33,-0.042255241,0.105638103,-0.042255241,0
202,-10,0.7,4,63.41463415,4146,-2036,2352,-612,-2612,-1530,-4025.490217,-7772.942279,-55.80419247,-1200.338733,83.23597507,4128.476736,59.6755957,65.76,60.12,65.31722014,0.034997291,0.001496031,-0.000598412,-0.012779865
202,-10,0.7,4,64.22764228,3260.147869,3244.555523,1035.859119,-784.8455529,-2103.179253,-592.296746,-3578,-7958,-16,-1017,123,3742,59.7,65.76246224,60.12,65.28710632,0.024404297,0.002462241,0,-0.03011381
202,-10,0.7,4,65.04065041,2598,7016,-940,-917,-1109,-47,-3046,-7396,-1060,-861,113,3475,59.7,65.79858302,60.12,65.26283607,0,0.036120783,0,-0.024270251
202,-10,0.7,4,65.85365854,2007.030033,2538,-2370.859119,-585.4276425,344.6537192,-239.5,-3573.913152,-7654.205938,-930.0040486,-705.4576169,48.02173913,3207.266558,59.7,65.85681836,60.12,65.26,0,0.05823534,0,-0.002836074
202,-10,0.7,4,66.66666667,1432,-1940,-3142,-132,1632,-432,-4482,-8090,-598,-556,-9,2922,59.7,65.91,60.12,65.26,0,0.053181635,0,0
202,-10,0.7,4,67.4796748,752,-192,-410,55,2079,414,-5280,-8452,410,-421,68,2587,59.7,65.95902635,60.12,65.26,0,0.049026354,0,0
202,-10,0.7,4,68.29268293,-214,-938,2286,206,2455,1582,-4498,-7820,1224,-480,79,2117,59.70257813,65.98,60.12,65.26300781,0.002578125,0.020973646,0,0.003007813
202,-10,0.7,4,69.10569106,450,-1512,2504,274,2483,2221,-5058,-8582,1110,-451,73,1864,59.750625,65.98,60.12,65.3190625,0.048046875,0,0,0.056054687
202,-10,0.7,4,69.91869919,1771.989607,-1579.064106,1725.099536,357.2227002,2340.084359,2991.956354,-4955.156906,-8367,1032.033007,-438.7135093,71.34161217,1569.752316,59.75761536,65.9867937,60.12,65.30785156,0.00699036,0.006793704,0,-0.011210937
202,-10,0.7,4,70.73170732,2728,-1628,840,460,2057,3787,-4689.251748,-7894,969.3238885,-429.2453416,70.54191818,1249.222736,59.74550016,66.02408015,60.12,65.26,-0.0121152,0.037286445,0,-0.047851563
202,-10,0.7,4,71.54471545,2798.813731,-1708.655167,654.7224729,592.2244199,1712.127501,4502.930216,-4324.220717,-7421,908.4528261,-423.1545031,69.72126509,933.3317883,59.72820096,66.08522763,60.10748219,65.26,-0.0172992,0.061147481,-0.01251781,0
202,-10,0.7,4,72.35772358,2846.556649,-1813.138106,521.6580712,752.7626598,1263.177436,5185.593658,-3924,-7206,836,-421,68,653,59.71147776,66.1603206,60.08214126,65.26,-0.0167232,0.075092974,-0.025340932,0
202,-10,0.7,4,73.17073171,2873.521244,-1974.051991,437.7646338,936.4195697,747.638654,5869.460272,-3384,-8662,740,-423,61,426,59.70109056,66.23944353,60.06229595,65.26,-0.0103872,0.079122923,-0.019845308,0
202,-10,0.7,4,73.98373984,2882,-2224,400,1138,203,6589,-2736,-7848,378,-422,80,399,59.7,66.31661004,60.06,65.30429688,-0.00109056,0.077166517,-0.00229595,0.044296875
202,-10,0.7,4,74.79674797,2756,-3240,390,1385,-418,7374,-2252.906059,-8056,142.8597929,-400.9650874,89.06105991,382.0461877,59.7,66.42,60.06,65.4,0,0.103389956,0,0.095703125
202,-10,0.7,4,75.6097561,2736,-3686,86,1523,-751,7902,-2010,-8264,30,-353,93,374,59.66214126,66.64397764,60.02214126,65.31166294,-0.037858742,0.223977641,-0.037858742,-0.088337065
202,-10,0.7,4,76.42276423,2455.347632,-4055.700262,-291.1293654,1697.818213,-1055.653374,8349.916667,-2060,-7374,258,-244,75,478,59.64,66.82411403,60,65.26,-0.022141258,0.180136387,-0.022141258,-0.051662935
202,-10,0.7,4,77.23577236,2066,-4434,-602,1899,-1220,8765,-1796.074074,-7426.265959,603.1723994,-228.9407856,76.09366391,508.5526682,59.64,66.9079468,60,65.26,0,0.083832771,0,0
202,-10,0.7,4,78.04878049,1856,-4918,-740,2129,-1177,9167,-1305.925926,-7553.643029,990.9363481,-220.5815039,79.18732782,525.7686038,59.64,67.06767563,60.01615713,65.26,0,0.159728831,0.016157134,0
202,-10,0.7,4,78.86178862,1514,-5276,-844,2258,-1007,9412,-1042,-7712,1230,-218,84,554,59.64,67.24,60.06,65.26,0,0.17232437,0.043842866,0
202,-10,0.7,4,79.67479675,832,-5860,-882,2435,-706,9676,-1220.796512,-7959.39539,1318.237389,-251.9928058,107.8946281,629.2449068,59.64,67.30307648,60.10384287,65.26,0,0.063076478,0.043842866,0
202,-10,0.7,4,80.48780488,742,-6320,-676,2542,-539,9802,-1444,-8210,1356,-318,129,749,59.64,67.31589913,60.12,65.26,0,0.012822655,0.016157134,0
202,-10,0.7,4,81.30081301,1412,-7038,-784,2664,-255,9887,-1504.669746,-8375.38874,1290,-403.4945759,114,932.9176577,59.64,67.26160458,60.12,65.26,0,-0.054294557,0,0
202,-10,0.7,4,82.11382114,1271,-8294.829631,-691.5473833,2747.327068,-82.24703569,10045.3097,-1558,-8458,1224,-496,99,1147,59.66214126,67.15359735,60.12,65.27685528,0.022141258,-0.108007223,0,0.016855282
202,-10,0.7,4,82.92682927,1130,-9802,-472,2788,90,10153,-1682.533742,-8269.791262,1331.698016,-561.5070245,101.659396,1333.504501,59.7,67.02,60.12,65.33,0.037858742,-0.133597354,0,0.053144718
202,-10,0.7,4,83.7398374,1476,-11242,40,2769,371,10137,-1770,-7910,1502,-635,109,1515,59.7,66.97384376,60.10748219,65.40224546,0,-0.046156239,-0.01251781,0.072245465
202,-10,0.7,4,84.55284553,1417.442595,-13691.84191,649.9094567,2682.777015,841.7435905,9834.474789,-1436,-7480,1618,-766,140,1694,59.7,66.88291013,60.08214126,65.49534322,0,-0.090933631,-0.025340932,0.093097759
202,-10,0.7,4,85.36585366,1310,-15314,1010,2538,1399,9427,-1548,-6878,1508,-782,172,1921,59.7,66.64213143,60.06229595,65.58265885,0,-0.240778697,-0.019845308,0.08731563
202,-10,0.7,4,86.17886179,1196,-13944,376,2349,1933,9239,-1088,-8082,954,-876,236,2121,59.7,66.49257797,60.07898438,65.64291775,0,-0.14955346,0.016688425,0.060258891
202,-10,0.7,4,86.99186992,1324.181818,-12442.11282,-167.3880937,2281.840201,2436.742598,8855.060201,-1140.839056,-8066.111111,902.3283685,-930.7838974,255.9873672,2290.62017,59.7,66.42,60.12,65.69,0,-0.072577973,0.041015625,0.047082254
202,-10,0.7,4,87.80487805,1572,-11580,-454,2215,2743,8403,-1285.678111,-8020.888889,878.5445194,-972.9554571,267.6784381,2444.331452,59.77074019,66.50122572,60.07898438,65.74441406,0.070740192,0.08122572,-0.041015625,0.054414063
202,-10,0.7,4,88.61788618,1864.480021,-11823.69359,-126.0792952,2005.150804,2801.202247,8068.946557,-1502,-7950,850,-1024,284,2583,59.83967086,66.61227656,60.06,65.76,0.068930665,0.111050835,-0.018984375,0.015585938
202,-10,0.7,4,89.43089431,2230,-12158,274,1754,2823,7689,-2158.969624,-7664.535305,811.2147486,-1105.745367,314.7347179,2706.987591,59.87715431,66.71159957,60.06,65.76,0.037483453,0.099323015,0,0
202,-10,0.7,4,90.24390244,2662.992049,-12335.30641,366.0829448,1581.640615,2672.753112,7043.987729,-3034,-7246,748,-1188,358,2816,59.88,66.72,60.04207175,65.76,0.00284569,0.00840043,-0.01792825,0
202,-10,0.7,4,91.05691057,3160,-12422,454,1441,2405,6253,-3660,-6900,508,-1242,421,2908,59.88,66.72,60,65.76,0,0,-0.04207175,0
202,-10,0.7,4,91.8699187,3720,-11844,684,1336,2144,5438,-3535,-6252.255656,496.5367741,-1227,509.128589,2935.569228,59.88,66.68475062,59.97473985,65.77538804,0,-0.035249381,-0.025260154,0.01538804
202,-10,0.7,4,92.68292683,4437.75,-11028.84378,443.7726316,1134.90897,1781.456504,4054.421926,-3410,-5678,486,-1212,564,2964,59.88,66.61537664,59.95288543,65.80596934,0,-0.069373981,-0.021854415,0.030581295
202,-10,0.7,4,93.49593496,4872,-10124,92,880,1376,2433,-3428.413367,-5424.588791,-53.38899083,-1290.5,477,3129.34022,59.88,66.50821183,59.94078138,65.82836965,0,-0.107164804,-0.012104055,0.022400312
202,-10,0.7,4,94.30894309,4533.329577,-9206.730418,-128.1347811,616.1571207,984.700829,794.2849173,-3468,-5312,-582,-1369,390,3271,59.86683493,66.46952621,59.94,65.83,-0.013165072,-0.038685624,-0.000781376,0.001630353
202,-10,0.7,4,95.12195122,4184,-8420,-266,347,583,-557,-3517.999256,-5799.287571,-92.85295196,-1349.296296,415.565336,3183.931736,59.82,66.45189501,59.94,65.83071331,-0.046834928,-0.017631201,0,0.000713306
202,-10,0.7,4,95.93495935,4173.728967,-7814.274255,-296.7495415,89.51794246,134.6130474,-1314.299544,-3599.323046,-6813.24181,826.5163183,-1312.703704,482.9084498,3021.530138,59.77316507,66.43641259,59.94,65.88311385,-0.046834928,-0.015482419,0,0.052400549
202,-10,0.7,4,96.74796748,4162,-7506,-336,-147,-270,-1894,-3736,-7682,1354,-1293,578,2932,59.77107422,66.41047096,59.94,65.91,-0.002090854,-0.025941631,0,0.026886145
202,-10,0.7,4,97.56097561,3516,-13436,-1370,-341,-541,-2402,-4702.09077,-8139.062333,1400.376238,-1327.437734,804.675795,2929.987142,59.86892578,66.36693779,59.94,65.91,0.097851562,-0.043533168,0,0
202,-10,0.7,4,98.37398374,659.2857417,-4523,2546,-296,-26,-2459.547255,-5582,-8604,1418,-1400,1076,2928,59.88,66.29447621,59.94,65.93847168,0.011074219,-0.072461582,0,0.02847168
202,-10,0.7,4,99.18699187,-1712,4390,6462,-251,489,-2478,-4578.148148,-9532.647376,1294.067608,-1549.258844,1282.075322,2880.75198,59.88,66.18892817,59.94,65.98,0,-0.105548039,0,0.04152832
202,-10,0.7,4,100,4148,-4582,2234,-520,-1142,-2413,-2713.851852,-10641.32369,973.2463263,-1746.573866,1461.982105,2796.820434,59.88,66.06150017,59.94,65.98,0,-0.127428002,0,0
202,-10,0.7,1,0,1691.259259,-4246,-725.3731593,-465.037037,-1520.694699,-2296.116318,-1710,-11178,532,-1845,1539,2752,59.88,65.9253329,59.94,65.9565625,0,-0.136167264,0,-0.0234375
202,-10,0.7,1,0.806451613,-2871.259259,-3622,-3167.819066,-362.962963,-1746.902905,-2160.224826,-1946.236483,-10124,-524.5511668,-1805.492754,1344,3033.928671,59.88,65.78637462,59.94,65.83644531,0,-0.13895828,0,-0.120117188
202,-10,0.7,1,1.612903226,-5328,-3286,-5342,-308,-1822,-2095,-2506,-9070,-1516,-1751,1149,3361,59.90502058,65.65634781,59.94,65.86336077,0.025020576,-0.130026812,0,0.026915456
202,-10,0.7,1,2.419354839,-2298,-5908,-7248,-924,-418,-2797,-4396.763517,-9315.849126,-1810.441558,-1721.507246,1204.776878,3436.571329,59.94,65.54,59.94,65.91,0.034979424,-0.116347812,0,0.046639232
202,-10,0.7,1,3.225806452,-206.6714558,-8283.525238,-4168,-579.962963,-399.0531542,-3516.433711,-5964,-9886,-1932,-1707,1297,3467,59.94,65.4576631,59.89898438,65.91,0,-0.082336904,-0.041015625,0
202,-10,0.7,1,4.032258065,1465.763528,-10389.65151,1552,58.96296296,-389.5821327,-4186.439078,-5317.992779,-11460.66898,-1190.449248,-1712.055417,1385.137401,3352.666667,59.94,65.3366583,59.88,65.91,0,-0.121004794,-0.018984375,0
202,-10,0.7,1,4.838709677,2164,-11298,4632,403,-387,-4482,-3869.318892,-13929.15786,316.8792809,-1728.444166,1472.45759,3140.333333,59.94,65.1372865,59.88,65.91,0,-0.199371803,0,0
202,-10,0.7,1,5.64516129,2177.560443,-9003,4212.107397,86.09548904,-576,-4406.745763,-2352,-15854,1514,-1758,1512,3026,59.94,65.03162215,59.88,65.93370853,0,-0.105664353,0,0.023708528
202,-10,0.7,1,6.451612903,2192,-6708,3224,-366,-765,-4297,-960,-16762,2044,-1974,1396,3279,59.93940159,64.96443856,59.88,65.98434561,-0.000598412,-0.067183582,0,0.050637085
202,-10,0.7,1,7.258064516,4085.948448,-10759,-6.10739726,-642.095489,-539.9932508,-4224.754237,-948,-16158,1156,-2002,1218,3414,59.89714635,64.91248117,59.88,66.0356381,-0.042255241,-0.051957392,0,0.051292489
202,-10,0.7,1,8.064516129,5966,-14810,-2668,-783,-96,-4187,-1988.996912,-13769.33481,368.2262011,-1964.407407,1170.256277,3527.702673,59.88,64.90980256,59.88,66.05,-0.017146346,-0.002678608,0,0.014361897
202,-10,0.7,1,8.870967742,3056,-6936,-2208,-591,486,-4978,-4245.104935,-10261.77851,-324.442455,-1894.592593,1140.961472,3630.880023,59.88,64.96422959,59.88,66.05,0,0.05442703,0,0
202,-10,0.7,1,9.677419355,4678,-8220,-560,-303,-88,-3937,-6416,-8464,-622,-1857,1131,3728,59.88,64.87621094,59.8555957,66.07847168,0,-0.088018657,-0.024404297,0.02847168
202,-10,0.7,1,10.48387097,4028,-7640,8,-310,-166,-3721,-8030,-9766,-366,-1937,1340,3818,59.87932617,64.67817383,59.82,66.12,-0.000673828,-0.198037109,-0.035595703,0.04152832
202,-10,0.7,2,11.29032258,3673.398504,-7692.240239,600.4442094,-283.8148148,-126.0740741,-3467.93064,-8393.627292,-10119.83115,-132.6857342,-1830.717032,1420.067739,3451.457621,59.83391602,64.56993815,59.82,66.12,-0.045410156,-0.108235677,0,0
202,-10,0.7,2,12.09677419,3411.921474,-7819.591589,1156.110994,-235.1851852,-51.92592593,-3194.963649,-8524,-10252,196,-1658,1509,2781,59.82,64.55,59.82,66.13058587,-0.013916016,-0.019938151,0,0.01058587
202,-10,0.7,2,12.90322581,3310,-7978,1402,-209,-12,-2931,-6638,-8436,1114,-1530,1839,2076,59.82,64.55,59.82,66.18472108,0,0,0,0.054135211
202,-10,0.7,2,13.70967742,3528,-8204,1140,-239,-36,-2690,-4591.313606,-5135.217708,948.0451621,-1218.647445,1705.354661,1196.771684,59.82,64.61794052,59.82,66.22962743,0,0.067940522,0,0.044906347
202,-10,0.7,2,14.51612903,3722,-8394,-130,-211,-100,-2256,-2415.889872,-749.7490742,484.1204323,-750.5419584,1357.695762,203.9081633,59.82,64.77038193,59.82,66.26998096,0,0.152441407,0,0.040353534
202,-10,0.7,2,15.32258065,3384,-8208,-796,-124,-83,-2072,-688.0212019,3082.594097,-226.8645137,-305.4154924,875.9389822,-607.9094388,59.82,64.87389151,59.82,66.31599151,0,0.103509581,0,0.046010543
202,-10,0.7,2,16.12903226,3774,-7546,-416,55,-37,-1752,16,4724,-1134,-63,340,-944,59.829375,64.89234375,59.82,66.38107481,0.009375,0.01845224,0,0.065083308
202,-10,0.7,2,16.93548387,3806.034682,-7546.32789,294.9535518,61.05780735,-37.25701459,-1444.655133,-1647,3345.967429,-3894.060216,-18.27338344,-531.3048,-868,59.87742188,64.83970703,59.82,66.4755985,0.048046875,-0.052636719,0,0.094523685
202,-10,0.7,2,17.74193548,3823.017341,-7547.544669,1133.587887,64.14001479,-38.18069585,-1141.021359,-3310,1774,-6160,37,-1298,-792,59.88,64.78625,59.85,66.53395577,0.002578125,-0.053457031,0.03,0.058357276
202,-10,0.7,2,18.5483871,3828,-7550,1538,65,-40,-821,-1694,1530,-3930,660,-1519,-1396,59.88411523,64.76,59.88,66.57850287,0.004115226,-0.02625,0.03,0.044547099
202,-10,0.7,2,19.35483871,3432,-8224,1294,43,-98,-466,-842,874,-714,1339,-1435,-2443,59.96888889,64.76,59.88,66.61651824,0.084773663,0,0,0.038015365
202,-10,0.7,2,20.16129032,2881.106072,-8311.456463,1112.913043,46.5,-116.0390492,-247.621582,-314,234,794,1449,-1234,-2956,60,64.7709375,59.88054264,66.6562585,0.031111111,0.0109375,0.000542638,0.039740264
202,-10,0.7,2,20.96774194,2302,-8340,1022,50,-123,-100,-767.1851852,-651.0506864,647.0045254,1637.609814,-1071.200457,-3659.298159,60,64.82699219,59.88625857,66.69425523,0,0.056054687,0.00571593,0.037996731
202,-10,0.7,2,21.77419355,1765.324081,-8228.190541,1273,28.85110294,-102,4.72168906,-1608.814815,-1581.080899,301.7868286,1884.724754,-926.0558619,-4445.861969,59.99478193,64.83,59.89725009,66.7329801,-0.00521807,0.003007813,0.010991523,0.038724869
202,-10,0.7,2,22.58064516,1362,-8026,1524,-9,-81,55,-2062,-2012,-98,2133,-787,-5065,59.97700962,64.83,59.91232717,66.77807458,-0.017772313,0,0.015077079,0.045094473
202,-10,0.7,2,23.38709677,1175.554261,-7767.809459,1479.454545,-50.70506334,-98,22.35112936,-1536,-2006,-570,2364,-653,-5425,59.95265926,64.83,59.93029977,66.83518012,-0.024350362,0,0.017972598,0.057105543
202,-10,0.7,2,24.19354839,1028,-7600,1384,-86,-115,-20,-1718,-2362,-1078,2755,-569,-5703,59.92129165,64.87381233,59.95743266,66.93446492,-0.031367608,0.043812335,0.027132893,0.099284805
202,-10,0.7,2,25,858,-7774,1224,-101,-95,-34,-1715,-2663.010223,-943.5718772,2965.641367,-402.7573939,-6099.601094,59.88178007,65.03196418,59.99811362,67.08312871,-0.039511577,0.158151842,0.040680961,0.148663785
202,-10,0.7,2,25.80645161,555.0419241,-7742,1161.436238,-115.8239852,-82.76,-102.8574838,-1712,-3004,-732,3114,-273,-6457,59.88,65.04,60,67.09,-0.001780071,0.008035823,0.001886379,0.006871291
202,-10,0.7,2,26.61290323,292,-7710,1108,-135,-77,-214,-1860,-3560,-590,3223,-254,-6639,59.88,65.04078613,59.9995459,67.0905163,0,0.000786133,-0.000454102,0.000516304
202,-10,0.7,2,27.41935484,204,-8546,1020,-173,-99,-340,-1696,-4100,-196,3360,-224,-6851,59.88,65.09376465,59.96277832,67.13603261,0,0.052978516,-0.036767578,0.045516304
202,-10,0.7,2,28.22580645,264,-8426,1070,-206,-94,-466,-1543.607843,-4727.712906,-228.0918532,3436.813919,-234.2692548,-7057.136736,59.88,65.05671501,59.92101742,67.22020274,0,-0.037049638,-0.041760902,0.084170134
202,-10,0.7,2,29.03225806,270.7133621,-8231.460805,1114.433448,-232.9521208,-84.234375,-611.4087243,-1407.137255,-5402.933706,-319.739262,3494.00655,-265.4273984,-7258.351879,59.88,64.8426816,59.88355971,67.31869756,0,-0.214033411,-0.037457712,0.09849482
202,-10,0.7,2,29.83870968,275.0229885,-7985.131827,1157.885287,-256.4834333,-70.875,-770.5747801,-1348,-6060,-464,3532,-318,-7448,59.82,64.74811631,59.84204965,67.32,-0.06,-0.094565291,-0.041510052,0.001302437
202,-10,0.7,2,30.64516129,277.3211207,-7773.736935,1190.894483,-282.2730291,-59.078125,-957.4534457,-1786,-6668,-920,3553,-555,-7619,59.76067383,64.68431887,59.82,67.32168457,-0.059326172,-0.063797441,-0.022049654,0.00168457
202,-10,0.7,2,31.4516129,278,-7684,1204,-316,-54,-1186,-1946,-7256,-1096,3499,-696,-7745,59.80608398,64.63025257,59.82,67.43520996,0.045410156,-0.054066294,0,0.113525391
202,-10,0.7,2,32.25806452,78,-7792,1046,-372,-69,-1536,-2570,-8366,-836,3378,-904,-7898,59.80748219,64.63460411,59.82874188,67.44814529,0.001398206,0.004351538,0.008741882,0.012935334
202,-10,0.7,2,33.06451613,-364,-7688,1296,-396,-41,-1678,-2352.495261,-9356.710721,-274.808936,3307.595965,-1038.695389,-7927.669944,59.76229595,64.68732139,59.87204016,67.3398996,-0.045186241,0.052717281,0.043298277,-0.108245692
202,-10,0.7,2,33.87096774,-298.2345243,-7706,1199.745167,-468.4218144,-75.5,-1922.689689,-2044,-10194,220,3271,-1156,-7938,59.76,64.69,59.91727495,67.23491853,-0.00229595,0.002678608,0.045234795,-0.104981071
202,-10,0.7,2,34.67741935,-134,-7760,1010,-566,-110,-2228,-1898,-10792,356,3265,-1283,-7859,59.76257813,64.71105469,59.94,67.16202179,0.002578125,0.021054688,0.022725046,-0.072896743
202,-10,0.7,2,35.48387097,324,-8120,762,-652,-91,-2556,-2066,-11282,348,3265,-1575,-7792,59.810625,65.1034375,59.94,67.12677524,0.048046875,0.392382813,0,-0.035246546
202,-10,0.7,2,36.29032258,564,-8096,700,-599,-116,-2694,-2060,-10946,94,3264,-1744,-7790,59.82,65.12555556,59.94,67.10175473,0.009375,0.022118056,0,-0.025020518
202,-10,0.7,2,37.09677419,1053.508934,-7729.752665,1141,-643.1124161,-136.6319556,-2856.427263,-1888.002048,-11013.76252,167.037037,3239.341359,-1909.487313,-7749.765021,59.82,64.97720165,59.94,67.09034911,0,-0.148353909,0,-0.011405612
202,-10,0.7,2,37.90322581,1502,-7384,1582,-721,-158,-2997,-1472.802621,-11200.9734,349.6296296,3176.429954,-2075.114619,-7638.329928,59.82,64.97,59.94,67.09,0,-0.007201646,0,-0.000349113
202,-10,0.7,2,38.70967742,1655.171086,-7503.777778,1523.459563,-800.2080138,-192.4907962,-3088.183285,-936.8022113,-11483.51761,587,3087.052951,-2238.530728,-7459.965298,59.81770405,64.96196418,59.94154076,67.08732139,-0.00229595,-0.008035823,0.001540764,-0.002678608
202,-10,0.7,2,39.51612903,1752.465508,-7726.222222,1386.696904,-885.7158039,-230.8565092,-3160.712124,-402.4013104,-11837.28013,824.3703704,2982.997514,-2397.384454,-7218.941714,59.77251781,64.80381233,59.97841996,67.03460411,-0.045186241,-0.158151842,0.0368792,-0.052717281
202,-10,0.7,2,40.32258065,1924,-7846,1230,-952,-249,-3213,7.9995905,-12238.14594,1006.962963,2876.050809,-2549.324607,-6919.529755,59.76,64.77623535,60.0225124,67.05479004,-0.01251781,-0.027576983,0.044092433,0.020185928
202,-10,0.7,2,41.12903226,2504,-7384,1050,-990,-235,-3245,172,-12662,1080,2778,-2692,-6566,59.76,64.82921387,60.05953931,67.16831543,0,0.052978516,0.037026908,0.113525391
