locomotion_mode,terrain_info,walk_speed_info,gait_phase,gait_percentage,left_accel_x,left_accel_y,left_accel_z,left_gyro_x,left_gyro_y,left_gyro_z,right_accel_x,right_accel_y,right_accel_z,right_gyro_x,right_gyro_y,right_gyro_z,left_hip_angle,left_knee_angle,right_hip_angle,right_knee_angle,left_hip_angle_vel,left_knee_angle_vel,right_hip_angle_vel,right_knee_angle_vel
202,-5,1.1,4,0,-58,-5844,-392,2342,68,4094,-3043.433047,-7769.059861,138.0740741,-222.2322221,53.56266278,281.0659484,59.88,65.49587623,60.12,65.56000407,0.011316872,0.012673212,0,0.020004071
202,-5,1.1,4,0,-112,-6736,-824,2320,70,4488,-2963.310538,-7772.341944,11.92592593,-229.7000667,58.01421445,230.1146984,59.88,65.60303226,60.12,65.60930185,0,0.107156026,0,0.049297781
202,-5,1.1,4,0,-176.9927528,-7320.85722,-1050.118742,2286.617568,92.53562439,4770.763783,-2862,-7778,-56,-239,65,193,59.88,65.64996006,60.12,65.61,0,0.046927799,0,0.000698148
202,-5,1.1,4,0,-252.0387656,-7790.049185,-1214.250063,2242.982094,147.291478,5005.614168,-2678.110331,-7886.724323,-23,-253.7078666,102.033671,174.6053736,59.88257813,65.71024359,60.12,65.61,0.002578125,0.060283533,0,0
202,-5,1.1,4,0,-342,-8222,-1352,2191,225,5198,-2524,-7992,10,-269,135,166,59.930625,65.88091012,60.12,65.61,0.048046875,0.170666536,0,0
202,-5,1.1,4,0,-499.7598748,-8670.516082,-1500.106981,2116.251932,388.7166114,5377.458676,-2499.314144,-7813,-9,-277.4375,115.5,243.0804878,59.94,65.91,60.12,65.61,0.009375,0.029089875,0,0
202,-5,1.1,4,0,-608,-9022,-1580,2042,638,5478,-2474,-7634,-28,-287,96,335,59.94,65.91,60.12,65.61,0,0,0,0
202,-5,1.1,4,0,-472.2377948,-9205.089376,-1571.076969,2002.402473,947.7680801,5489.783784,-2246.79668,-7814,195,-307.2251229,110.5,352.75735,59.94,65.91,60.12,65.61,0,0,0,0
202,-5,1.1,4,0,-234,-9376,-1542,1956,1320,5494,-2042,-7994,418,-341,125,371,59.94178243,65.91,60.12,65.61592593,0.001782427,0,0,0.005925926
202,-5,1.1,4,0,-12,-9652,-1150,1828,1743,5476,-2434,-7822,374,-409,118,441,59.98244068,65.91,60.12,65.67491084,0.04065825,0,0,0.058984911
202,-5,1.1,4,0,206.0859505,-9923.02137,-897.1815188,1677.80929,2037.997768,5408.894291,-2501.289572,-7847.101351,346.826087,-470.7871591,141.75,485.0249446,60.02628409,65.95000814,60.12,65.69,0.043843415,0.040008142,0,0.015089163
202,-5,1.1,4,0,446,-10104,-754,1535,2233,5296,-2542,-7902,334,-531,173,527,60.05960297,66.0486037,60.12,65.69,0.033318879,0.098595563,0,0
202,-5,1.1,4,0,758,-10150,-720,1429,2318,5134,-2590,-8000,342,-593,184,586,60.06,66.02620305,60.12,65.69,0.00039703,-0.022400656,0,0
202,-5,1.1,4,0,1354,-10364,-466,1257,2289,4797,-2586.291667,-7969,367.8163265,-656.2470973,217.2015019,593.649555,60.06,65.96218343,60.12,65.68915408,0,-0.064019617,0,-0.000845925
202,-5,1.1,4,0,1960.250047,-10884.3784,-66.3410372,1044.308783,2160.834441,4472.121955,-2574,-7938,388,-704,248,600,60.06,65.80393322,60.12,65.66595793,0,-0.15825021,0,-0.023196149
202,-5,1.1,4,0,2472,-11376,192,862,1953,4102,-2368,-8272,224,-724,255,621,60.07714635,65.73018263,60.12,65.63074074,0.017146346,-0.073750586,0,-0.035217186
202,-5,1.1,4,0,2868.231974,-11542.89895,116.8035463,763.8752728,1660.229071,3604.125243,-2332.274501,-8374.643066,262.8837209,-766.492463,268.6569995,672.6341021,60.11940159,65.69434973,60.12,65.61021593,0.042255241,-0.035832909,0,-0.020524807
202,-5,1.1,4,0,3232.983977,-11636.4249,-94.69054326,694.6234295,1282.898063,2999.409065,-2314.891773,-8439.432644,345.7674419,-827.7069203,289.0467318,749.734154,60.12,65.63475171,60.12,65.65352534,0.000598412,-0.059598013,0,0.043309407
202,-5,1.1,4,0,3500.243991,-11736.73839,-421.3393612,626.8098715,956.8680236,2324.988354,-2288,-8462,422,-890,314,824,60.12,65.62130976,60.12,65.6865625,0,-0.013441957,0,0.033037159
202,-5,1.1,4,0,3604,-11924,-842,533,818,1618,-2201.364341,-8401.851852,484.7510767,-943.4954222,346.8733861,878.6885635,60.12,65.73518081,60.12,65.6225,0,0.113871059,0,-0.0640625
202,-5,1.1,4,0,3378.846293,-12856.36396,-2187.154728,331.5117764,1058,769.2778082,-2083.348837,-8290.148148,542.5977606,-998.1344441,389.1832362,930.8779997,60.12,65.79801412,60.12,65.61,0,0.062833311,0,-0.0125
202,-5,1.1,4,0,2896,-13660,-3302,188,1298,10,-2024,-8230,568,-1066,436,1003,60.12,65.82966666,60.12,65.61,0,0.031652534,0,0
202,-5,1.1,4,0,2213.388562,-11094.37037,-1841.333333,344.3333333,1281.82561,-524.8538278,-2052,-8284.284964,199,-1165.626235,496.5135724,1144.72713,60.12,65.83,60.12,65.61,0,0.000333341,0,0
202,-5,1.1,4,0,1157.033905,-6329.62963,871.3333333,634.6666667,1233.651221,-960.8158028,-2080,-8408,-170,-1289,547,1322,60.12139745,65.82781161,60.12,65.61,0.001397446,-0.002188388,0,0
202,-5,1.1,4,0,-332,-3764,2332,791,1154,-1141,-1674.262716,-8747.53151,56.25177607,-1434.942384,566.2689528,1482.38698,60.14059771,65.79536251,60.12,65.61,0.019200267,-0.032449107,0,0
202,-5,1.1,4,0,-4416.254718,-5029.73746,-6.78011349,410.5,468.7536978,-915,-915.6365439,-9251.822923,487.8368855,-1595.550416,578.8449629,1643.669296,60.16681025,65.74178557,60.12,65.62665084,0.026212539,-0.053576932,0,0.016650837
202,-5,1.1,4,0,-7638,-6452,-3230,30,-213,-689,-492,-9566,754,-1733,599,1808,60.18,65.69,60.12,65.68518695,0.013189749,-0.051785574,0,0.058536115
202,-5,1.1,4,0,-4358,-6646,-4600,99,-265,-1067,-476,-9632,792,-1830,653,1978,60.18,65.63715522,60.0844043,65.73933668,0,-0.052844781,-0.035595703,0.054149729
202,-5,1.1,4,0,-1849.117789,-7990.374972,-2862.09023,427.0915386,-433.1988395,-1524.110137,-941,-10154.06378,768,-1970.719449,726.4012761,2227.771866,60.18,65.580687,60.06,65.76,0,-0.056468221,-0.024404297,0.020663319
202,-5,1.1,4,0,234.3299945,-10167.18749,434.4862064,927.3235471,-702.7177953,-1999.673266,-1406,-10800,744,-2142,806,2503,60.18,65.54394402,60.06,65.76,0,-0.036742979,0,0
202,-5,1.1,4,0,1104,-11308,2414,1186,-951,-2337,-332,-11072,874,-2342,879,2748,60.18,65.54,60.06,65.78352538,0,-0.003944019,0,0.023525377
202,-5,1.1,4,0,-314,-7056,2640,636,-1130,-2497,-157.7975492,-11587.44569,659.1538462,-2474.135358,970.805345,2989.045667,60.18,65.54,60.06,65.82937586,0,0,0,0.04585048
202,-5,1.1,4,0,-384.8666554,-8011,896,248.8371367,-350.5,-3450.451399,-16,-12198,384,-2588,1026,3242,60.14214126,65.45166294,60.06,65.83,-0.037858742,-0.088337065,0,0.000624143
202,-5,1.1,1,0,-406,-8966,-848,6,429,-4278,504.8677419,-12777.90525,273.8461538,-2705.483369,1018.386256,3537.464776,60.12,65.4,60.06,65.83,-0.022141258,-0.051662935,0,0
202,-5,1.1,1,0.689655172,-34.31147541,-8033,284,-93.37441279,240.5403633,-4072.143617,908,-13248,224,-2822,999,3836,60.12,65.4,60.06,65.83,0,0,0,0
202,-5,1.1,1,1.379310345,742,-7100,1416,-149,-12,-3771,751.7999467,-13562.92885,445.2626459,-2970.497881,907.7785168,4107.123302,60.12,65.4,60.06,65.83,0,0,0,0
202,-5,1.1,1,2.068965517,1946,-7988,804,-175,-108,-3612,408,-13716,840,-3060,815,4351,60.12,65.4,60.06,65.83,0,0,0,0
202,-5,1.1,1,2.75862069,1717,-7812,109.4246101,-145.1152344,-104.0294118,-3472.935979,-218,-12564,1226,-3023,798,4550,60.12,65.36611038,60.09785874,65.83,0,-0.033889618,0.037858742,0
202,-5,1.1,1,3.448275862,1488,-7636,-294,-87,-93,-3331,-1808.661794,-12619.807,951.533537,-2997.873908,894.8648902,4623.201366,60.12,65.31715042,60.12,65.83,0,-0.048959959,0.022141258,0
202,-5,1.1,1,4.137931034,1738,-8372,-42,-14,-45,-3160,-4440,-12784,344,-2970,1092,4685,60.12,65.27325187,60.12,65.83,0,-0.043898548,0,0
202,-5,1.1,1,4.827586207,1845.082232,-8126,516.8098736,-20.13846154,-59.58139535,-3037.627673,-8932,-13754,-782,-2916,1375,4789,60.12,65.22974904,60.12,65.83,0,-0.043502834,0,0
202,-5,1.1,1,5.517241379,1960,-7880,916,-33,-78,-2914,-9645.871174,-12603.08507,-650.3542039,-2641.523155,1400.621304,4198.148277,60.12,65.1848575,60.12,65.83,0,-0.044891536,0,0
202,-5,1.1,1,6.206896552,2432.070501,-8055,871.3884892,-59.36153846,-82.56566347,-2746.052712,-9886,-10496,-342,-2242,1423,3250,60.1146711,65.12571147,60.12,65.83,-0.005328902,-0.059146036,0,0
202,-5,1.1,1,6.896551724,2816,-8230,772,-79,-88,-2541,-7200.075234,-8190.135129,507.7718185,-1922.863347,1613.084767,2594.85283,60.09993234,65.05141429,60.12,65.83,-0.014738757,-0.074297176,0,0
202,-5,1.1,1,7.586206897,2566,-8074,584,-70,-120,-2278,-3602,-5866,1454,-1571,1782,1916,60.08182764,64.97816262,60.12,65.83,-0.018104701,-0.073251677,0,0
202,-5,1.1,1,8.275862069,2714.125,-8077.582128,577.031186,-62.9123422,-131.4294325,-2025.537367,-2236,-4136,1870,-1094,1721,1056,60.06647689,64.9222575,60.12,65.83,-0.015350747,-0.055905118,0,0
202,-5,1.1,2,8.965517241,3040,-8086.719008,574.7765731,-57.03378972,-139.9094955,-1779.685741,-2830,1435.74358,-262,-661.6635144,575.69708,351.5348171,60.06,64.9,60.12,65.83,-0.006476893,-0.022257497,0,0
202,-5,1.1,2,9.655172414,3365.875,-8098.996384,572.6336736,-49.38834239,-145.1848108,-1525.741244,-3424,5790,-2394,-189,-517,-134,60.06,64.98253022,60.12,65.83,0,0.082530224,0,0
202,-5,1.1,2,10.34482759,3514,-8112,566,-37,-147,-1249,421.9635433,-3178.532236,-1505.355281,61.59855238,-491.7485166,-60.23731139,60.06,65.06294933,60.12,65.83,0,0.080419109,0,0
202,-5,1.1,2,11.03448276,2526,-8128,482,3,-109,-926,190,3850,-3526,192,-1179,103,60.06,65.10668003,60.12,65.83,0,0.043730695,0,0
202,-5,1.1,2,11.72413793,2563,-8129.040258,500,2.7375,-90.87788018,-762.1326256,-1456,1126,-830,849,-1236,-559,60.06,65.11,60.12,65.84150652,0,0.003319972,0,0.011506516
202,-5,1.1,2,12.4137931,2600,-8130,518,2,-83,-642,-1834,0,644,1130,-956,-1252,60.06,65.11,60.12,65.88661868,0,0,0,0.045112163
202,-5,1.1,2,13.10344828,2380.590426,-8156.481481,439,-7.7375,-95,-525.0397887,-2020.464039,-1258.30019,1078.525419,1393.228609,-633.7681632,-2016.023779,60.01898438,65.03418933,60.12,65.94445148,-0.041015625,-0.075810672,0,0.057832801
202,-5,1.1,2,13.79310345,1992,-8182,360,-17,-107,-438,-2194,-2302,1244,1672,-295,-2720,60,64.93054188,60.12,65.99398389,-0.018984375,-0.103647446,0,0.049532408
202,-5,1.1,2,14.48275862,1620,-7904,390,1,-99,-394,-2562.00611,-2969.077136,678.7646346,2009.285457,53.60282814,-3235.811265,60,64.8378404,60.12,66.04871338,0,-0.092701481,0,0.054729495
202,-5,1.1,2,15.17241379,1502.72993,-8051,455.3342124,15.50787402,-96.14285714,-383.0222482,-2816,-3324,-192,2383,378,-3708,60,64.89659138,60.12,66.09835848,0,0.058750976,0,0.049645099
202,-5,1.1,2,15.86206897,1392,-8198,536,23,-95,-379,-2410,-3374,-738,2786,632,-4219,60,65.04,60.12,66.12,0,0.143408623,0,0.021641518
202,-5,1.1,2,16.55172414,1100,-8038,606,20,-111,-384,-1968.725909,-3546.441893,-1095.447499,3078.602853,622.2315302,-4513.137951,59.95898438,65.09689454,60.12,66.12,-0.041015625,0.056894537,0,0
202,-5,1.1,2,17.24137931,950.4566745,-8083,640.8119015,5.334368902,-103.2352941,-433.082967,-1505.371819,-3878.643547,-1381.590651,3324.357049,593.1297271,-4735.523142,59.94,65.11,60.12,66.134655,-0.018984375,0.013105463,0,0.014654997
202,-5,1.1,2,17.93103448,884,-8128,666,-18,-95,-516,-1030,-4324,-1638,3544,545,-4936,59.94,65.11,60.12,66.23968248,0,0,0,0.105027478
202,-5,1.1,2,18.62068966,1037,-8031,693.1764706,-47.13327098,-94.26470588,-614.9494936,-415.493352,-5199.93694,-1927.849824,3760.050943,231.1751998,-5126.735868,59.94,65.04149573,60.12,66.33684069,0,-0.068504271,0,0.097158215
202,-5,1.1,2,19.31034483,1190,-7934,708,-71,-94,-696,-40,-6156,-2090,3920,-284,-5304,59.94,64.88999548,60.12,66.42,0,-0.151500253,0,0.08315931
202,-5,1.1,2,20,1032,-8346,692,-79,-115,-724,-217.5431578,-6702.574862,-1963.481481,4016.61305,-880.7362221,-5490.975124,59.94,64.79071992,60.12,66.46238619,0,-0.09927556,0,0.042386186
202,-5,1.1,2,20.68965517,982.588644,-8242.69409,743.1549172,-102.703368,-111.751634,-813.1764337,-646.1974267,-7140.715652,-1728.518519,4089.917636,-1521.755098,-5674.487562,59.94,64.77937988,60.12,66.51829133,0,-0.011340033,0,0.055905145
202,-5,1.1,2,21.37931034,954.38596,-8038.499291,851.1987232,-139.7726242,-103.8366013,-960.010525,-1170,-7608,-1602,4119,-1864,-5826,59.94,64.95062012,60.12,66.61222416,0,0.171240234,0,0.093932827
202,-5,1.1,2,22.06896552,902,-7892,948,-174,-94,-1108,-1937.625127,-8166.808914,-1722,4030.464968,-1928.626426,-5939.658795,59.94,64.91305664,60.12,66.69813974,0,-0.037563477,0,0.085915581
202,-5,1.1,2,22.75862069,704,-7846,1008,-199,-80,-1239,-2724,-8754,-1842,3919,-1954,-6029,59.93960297,64.83173843,60.12,66.79,-0.00039703,-0.081318214,0,0.091860261
202,-5,1.1,2,23.44827586,969.7860412,-8075,911.4199237,-256.4377232,-52.23342939,-1410.980988,-3178,-9348,-1318,3887,-1766,-6094,59.90628409,64.96383351,60.12,66.9626412,-0.033318879,0.132095083,0,0.1726412
202,-5,1.1,2,24.13793103,1372,-8304,758,-304,-33,-1537,-3732,-10116,-168,3821,-1418,-6105,59.86602102,65.06540626,60.12,67.02,-0.040263072,0.101572751,0,0.0573588
202,-5,1.1,2,24.82758621,1610,-8250,652,-312,-94,-1567,-3685.536143,-10832.55077,-60.55425194,3708.574182,-1152.745673,-6062.916106,59.82909229,65.10839887,60.12,67.02,-0.036928726,0.042992613,0,0
202,-5,1.1,2,25.51724138,2002.787963,-8100.575137,567.483871,-326.3478261,-123.4274993,-1580.116125,-3596.850064,-11475.27539,-3.054903748,3574.214846,-932.7617253,-5966.165545,59.75817171,65.11,60.12,67.04847168,-0.070920585,0.001601128,0,0.02847168
202,-5,1.1,2,26.20689655,2328,-7880,524,-336,-142,-1593,-3542,-11754,14,3483,-841,-5859,59.7,65.11,60.12,67.09,-0.05817171,0,0,0.04152832
202,-5,1.1,2,26.89655172,2426,-7618,650,-336,-153,-1621,-3534,-11380,-1112,3449,-916,-5746,59.7,65.02824954,60.12,67.09,0,-0.081750457,0,0
202,-5,1.1,2,27.5862069,1974,-7204,582,-438,-216,-1632,-3319.452269,-10802.05947,-1612.816107,3449,-1039.843284,-5735.015604,59.7,64.94593817,60.12382324,67.08125251,0,-0.082311369,0.003823242,-0.008747493
202,-5,1.1,2,28.27586207,1990.912897,-7289.862105,599.4263379,-504.6389258,-323.6429071,-1639.50837,-2904,-10186,-1826,3449,-1180,-5725,59.7,64.8881591,60.16703613,66.97592232,0,-0.057779073,0.043212891,-0.105330184
202,-5,1.1,2,28.96551724,2022.936905,-7557.501988,655.5193424,-556.8750184,-446.4325646,-1645.690693,-2243.823361,-9631.015224,-1561.920354,3395.883832,-1312.05966,-5638.423138,59.7,64.84493264,60.21270996,66.85241826,0,-0.043226463,0.045673828,-0.123504065
202,-5,1.1,2,29.65517241,2042,-8022,756,-578,-505,-1652,-1680,-9250,-1154,3290,-1419,-5497,59.7,64.83109234,60.24,66.70434027,0,-0.013840299,0.027290039,-0.148077988
202,-5,1.1,2,30.34482759,2044,-10530,1448,-553,-440,-1659,-1532,-9132,-896,3147,-1477,-5353,59.7,64.91619988,60.24,66.53026759,0,0.085107538,0,-0.174072681
202,-5,1.1,2,31.03448276,2007.75,-10173.77903,1275.662461,-569.8116683,-442.031637,-1690.806027,-1264,-9310,-694,2873,-1552,-5072,59.6915978,64.99264468,60.24,66.34051688,-0.008402198,0.076444806,0,-0.189750711
202,-5,1.1,2,31.72413793,1928,-9385.910753,894.5998967,-610.4144487,-447.3343653,-1755.726854,-972,-9598,-694,2686,-1646,-4848,59.64494606,65.03662324,60.24,66.14588552,-0.04665174,0.04397856,0,-0.194631357
202,-5,1.1,2,32.4137931,1848.25,-8587.587097,508.7373837,-660.0600048,-454.719911,-1840.784254,-872,-9968,-1034,2392,-1854,-4484,59.64,65.04,60.26015262,66.03424912,-0.004946061,0.003376756,0.020152619,-0.111636402
202,-5,1.1,2,33.10344828,1812,-8200,322,-704,-463,-1933,-1125.249428,-10003.0047,-1195.742268,2202.593803,-2079.244613,-4091.823871,59.64,65.0396399,60.3,65.98,0,-0.000360105,0.039847381,-0.054249121
202,-5,1.1,2,33.79310345,1820,-8165.544624,311.2647999,-738.0122879,-474.1828173,-2046.520364,-1552,-10014,-1266,2018,-2208,-3648,59.64,65.00341848,60.32556417,65.99623535,0,-0.036221419,0.025564171,0.016235352
202,-5,1.1,2,34.48275862,1828,-8152,300,-774,-489,-2183,-1956.869246,-9968.3716,-1215.455436,1714.196836,-2177.434438,-3096.479497,59.62868313,64.87181927,60.34794676,66.02785156,-0.011316872,-0.131599206,0.022382588,0.031616211
202,-5,1.1,2,35.17241379,1704,-8203.750996,166.9352518,-831.0304878,-512.4,-2331.104937,-2421.564991,-9841.194799,-1073.166309,1314.79144,-2093.743314,-2454.000179,59.58444444,64.57808158,60.35961497,66.04921387,-0.044238683,-0.29373769,0.01166821,0.021362305
202,-5,1.1,2,35.86206897,1580,-8318,44,-868,-528,-2488,-2862.226114,-9647.032199,-853.1494633,913.4876267,-1968.934971,-1770.281113,59.58,64.63541504,60.36,66.05,-0.004444444,0.05733346,0.000385031,0.000786133
202,-5,1.1,2,36.55172414,1580,-8528,250,-858,-519,-2645,-3194.991491,-9400.446399,-569.4217451,603.9892089,-1815.017752,-1095.041365,59.58,64.75921387,60.36059841,66.05,0,0.123798828,0.000598412,0
202,-5,1.1,2,37.24137931,1394,-8698,242,-864,-540,-2855,-3336,-9116,-236,480,-1644,-478,59.58,64.70623535,60.40285365,66.05,0,-0.052978516,0.042255241,0
202,-5,1.1,2,37.93103448,1532,-8628,138,-877,-575,-2964,-3351.568875,-8465.473601,556.3628474,483.016,-1422.376584,158.0762565,59.58,64.69,60.42,66.05980256,0,-0.016235352,0.017146346,0.009802565
202,-5,1.1,2,38.62068966,1816,-8768,-198,-880,-606,-3159,-3363.854985,-7345.927801,1966.21277,490.208,-1110.648038,848.5857886,59.58,64.69,60.42,66.11422959,0,0,0,0.05442703
202,-5,1.1,2,39.31034483,1566.592593,-9303.873005,-28.80152251,-899.1939513,-658.7266707,-3333.179671,-3372.756656,-6109.845201,3603.481269,498.792,-711.8312001,1481.057192,59.58,64.655,60.42,66.10157715,0,-0.035,0,-0.012652447
202,-5,1.1,2,40,1103.407407,-10266.28356,373.2858439,-929.930309,-728.3604452,-3498.427026,-3378.172219,-5109.7084,5078.099846,505.984,-228.9429079,1943.019064,59.58,64.62,60.42,66.04330078,0,-0.035,0,-0.058276367
202,-5,1.1,2,40.68965517,854,-11332,850,-946,-801,-3671,-3380,-4698,6000,509,335,2122,59.58,64.62,60.42,65.93620443,0,0,0,-0.107096354
202,-5,1.1,2,41.37931034,1124.489785,-12784.40637,1606.318379,-871.5,-872.3225458,-3908.913774,-863.6251248,-8710,6486.879528,484.366242,1480.866151,1546.5,59.570625,64.62,60.42,65.92320302,-0.009375,0,0,-0.013001409
202,-5,1.1,2,42.06896552,1464,-13732,2132,-797,-949,-4056,2832,-12722,6716,418,2325,971,59.52257813,64.62,60.42,65.97481481,-0.048046875,0,0,0.051611797
202,-5,1.1,2,42.75862069,1560,-11908,1330,-863,-1035,-4053,5322.625125,-8222,335,-106.866242,2216.610555,1127.253053,59.55,64.62,60.42,65.93267986,0.027421875,0,0,-0.042134957
202,-5,1.1,2,43.44827586,1313,-10662.13251,167.859436,-791.6047431,-1160.448245,-4193.030418,6634,-3722,-6046,-590,1985,1436,59.57770405,64.61732139,60.42018894,65.82215907,0.02770405,-0.002678608,0.000188942,-0.11052079
202,-5,1.1,2,44.13793103,1066,-10054,-564,-701,-1283,-4350,4887.4375,-4528.25,-4184.125,-524.0625,1494.657502,1919.89938,59.53251781,64.56460411,60.43814815,65.7529013,-0.045186241,-0.052717281,0.017959206,-0.069257772
202,-5,1.1,3,44.82758621,1446.379547,-10196.119,-506.4518744,-665.2582345,-1363.842302,-4379.057034,1045,-6302,-88,-379,736.2788909,2587.993894,59.52,64.56460411,60.46896319,65.69140541,-0.01251781,1.42E-14,0.030815037,-0.061495886
202,-5,1.1,3,45.51724138,2368.981316,-10510.68245,-354.2370821,-639.1291173,-1431.062036,-4397.528517,-2797.4375,-8075.75,4008.125,-233.9375,39.51083408,3179.84146,59.52,64.61732139,60.48925982,65.62498957,0,0.052717281,0.02029663,-0.066415844
202,-5,1.1,3,46.20689655,3506,-10830,-138,-629,-1503,-4404,-4544,-8882,5870,-168,-266,3435,59.52,64.62,60.49,65.54111419,0,0.002678608,0.000740184,-0.083875379
202,-5,1.1,3,46.89655172,5470.574239,-11160.72496,402.1875457,-673.0740741,-1578.38337,-4311.868585,-2879,-8401.029636,3518.89425,-762,185.5,3310.5,59.52,64.62052979,60.49,65.45327021,0,0.000529785,0,-0.087843977
202,-5,1.1,3,47.5862069,7930.064897,-11496.47359,1273.908357,-754.9259259,-1659.492956,-4097.959391,-1214,-7626,504,-1356,637,3186,59.52,64.66342529,60.49,65.37015502,0,0.042895508,0,-0.083115191
202,-5,1.1,3,48.27586207,9138,-11650,2068,-799,-1770,-3856,-1461.578947,-6925.970364,-709.8942496,-1168.277027,209,3731.5,59.52,64.71343109,60.49,65.31100573,0,0.050005797,0,-0.059149288
202,-5,1.1,3,48.96551724,8284,-10628,2624,-780,-1976,-3587,-2110,-6520,-1260,-915,-219,4277,59.52,64.75689816,60.49,65.2709248,0,0.043467074,0,-0.040080931
202,-5,1.1,3,49.65517241,7209.029352,-9352.384093,2386.232877,-791.5,-2264.381536,-3079.368386,-4286,-7014,920,-816,-154,4233,59.52,64.78136395,60.49,65.19061619,0,0.02446579,0,-0.080308612
202,-5,1.1,3,50.34482759,5936,-7622,2080,-803,-2607,-2346,-3622,-7188,1954,-1006,107,3598,59.52,64.79861686,60.49,65.09212068,0,0.017252901,0,-0.098495512
202,-5,1.1,3,51.03448276,4360,-4540,1982,-773,-2995,-1271,-3087.45436,-7565.983254,1336.962963,-979.680347,82.62962963,3389.257699,59.52,64.8173696,60.49,65.00377826,0,0.018752744,0,-0.088342417
202,-5,1.1,3,51.72413793,4008,-1740,2530,-654,-3283,-633,-2634.838291,-8035.769405,191.037037,-917.8051385,37.37037037,3263.900084,59.52,64.85170615,60.49,64.94599227,0,0.034336549,0,-0.057785993
202,-5,1.1,3,52.4137931,3275.748802,-1914.222222,541.4814815,-467.7113189,-2830.72367,-497.7459422,-2444,-8266,-426,-846,13,3106,59.52,64.89791323,60.49,64.90795034,0,0.04620708,0,-0.03804193
202,-5,1.1,3,53.10344828,2275.980119,-2237.777778,-3151.481481,-223.3369202,-1902.891785,-431.5505872,-2653.275296,-8187.185185,-343.4484878,-765.6118064,22.85185185,2834.60558,59.52,64.9,60.49,64.87005401,0,0.002086771,0,-0.03789633
202,-5,1.1,4,53.79310345,1400,-2412,-5140,58,-1143,-298,-3094.106147,-8040.814815,-179.1191978,-667.5979871,41.14814815,2503.086963,59.52,64.9017895,60.49,64.82382969,0,0.001789501,0,-0.046224312
202,-5,1.1,4,54.48275862,772.8439709,-2063,-2514.883875,450.8896697,-734.5021535,568.9745587,-3486,-7962,-58,-562,51,2197,59.52,64.9465313,60.49,64.73021893,0,0.044741797,0,-0.093610763
202,-5,1.1,4,55.17241379,248,-1714,528,794,-438,1744,-3724,-8406,-16,-446,42,1954,59.52,65.01372219,60.47376465,64.65997884,0,0.067190895,-0.016235352,-0.070240089
202,-5,1.1,4,55.86206897,-281.7565923,-1970,1226.883875,941.9922738,-250.2376595,2507.720367,-3508,-7808,198,-354,51,1636,59.52,65.09749797,60.42078613,64.62044434,0,0.083775779,-0.052978516,-0.039534505
202,-5,1.1,4,56.55172414,-572,-2226,1508,1056,-80,3139,-3752,-7892,274,-259,75,1452,59.52,65.14420703,60.42,64.62,0,0.046709055,-0.000786133,-0.000444336
202,-5,1.1,4,57.24137931,916,-2224,106,1177,146,3628,-3531.788146,-7823.037037,361.6168807,-198.0377775,61.51851852,1207.23384,59.52,65.1936613,60.42,64.62,0,0.04945427,0,0
202,-5,1.1,4,57.93103448,1136.598923,-1961.105463,-1046.666199,1382.164111,309.8245685,4207.281849,-3082.687403,-7694.962963,458.6721604,-149.8916641,36.48148148,939.8930076,59.52,65.29129543,60.42,64.62,0,0.097634128,0,0
202,-5,1.1,4,58.62068966,1210,-1700,-1646,1657,472,4809,-2722,-7626,568,-111,23,742,59.52,65.38452651,60.42,64.62,0,0.093231085,0,0
202,-5,1.1,4,59.31034483,824,-2070,-1234,2017,690,5371,-2561.593895,-7643.393939,711.8705219,-77.64259252,29.22222222,633.8230058,59.52,65.46422617,60.42,64.62,0,0.079699664,0,0
202,-5,1.1,4,60,934,-2682,-930,2249,761,5720,-2440.330006,-7688.787879,873.6907062,-49.47518023,40.77777778,552.642631,59.52,65.50979442,60.42,64.62,0,0.045568248,0,0
202,-5,1.1,4,60.68965517,1075.935644,-3606.498686,-919.1726619,2451.956084,790.624036,6208.399631,-2266,-7752,998,-28,47,466,59.52,65.54795154,60.41742188,64.62,0,0.038157122,-0.002578125,0
202,-5,1.1,4,61.37931034,1162,-4646,-916,2639,803,6731,-1896,-7878,1066,-14,35,359,59.52,65.58600677,60.369375,64.62,0,0.038055226,-0.048046875,0
202,-5,1.1,4,62.06896552,1136,-5598,-1306,2812,786,7181,-1736.998778,-8168.40764,972.1402321,21.62796209,42,308.7450658,59.52078242,65.64212675,60.36,64.62,0.000782418,0.056119982,-0.009375,0
202,-5,1.1,4,62.75862069,1254,-5736,-920,2841,922,7396,-1670,-8378,822,48,49,287,59.52667692,65.72991541,60.36,64.62,0.005894506,0.087788662,0,0
202,-5,1.1,4,63.44827586,1872,-6994,-662,2790,839,7776,-1924,-7692,716,40,35,365,59.53753358,65.83865287,60.36,64.62,0.010856655,0.108737451,0,0
202,-5,1.1,4,64.13793103,2680.143781,-8234.149775,-840,2798,703.5984723,7896.914397,-1814,-7994,767.5209581,53,31.90592052,354,59.55237949,65.9558214,60.35742188,64.6220795,0.01484591,0.117168534,-0.002578125,0.002079498
202,-5,1.1,4,64.82758621,3200,-9400,-1018,2806,513,7988,-1704,-8296,860,66,30,343,59.57024176,66.06890331,60.309375,64.66951412,0.01786227,0.113081911,-0.048046875,0.047434625
202,-5,1.1,4,65.51724138,3247.264368,-10413.09949,-52,2729.477041,183.6954811,8148.295359,-1712.608108,-8275.626108,938.884815,38.85373444,27.44444444,375.5272567,59.59862988,66.17095965,60.3,64.71754968,0.028388121,0.102056338,-0.009375,0.048035558
202,-5,1.1,4,66.20689655,3264,-11374,914,2604,-132,8250,-1732,-8212,1050,0,26,432,59.63944304,66.26335777,60.3,64.757523,0.040813164,0.09239812,0,0.039973321
202,-5,1.1,4,66.89655172,3236.358974,-12591.9875,431.2693878,2496.687593,-313.3329682,8122.112954,-1770,-7644,1308,-19,63,483,59.64,66.3158932,60.29486784,64.77974516,0.000556955,0.05253543,-0.00513216,0.022222155
202,-5,1.1,4,67.5862069,3152,-13320,-310,2414,-400,7917,-1658.629964,-7655.175,1302.146789,-56.83428452,50.92293233,553.4967753,59.64,66.35864354,60.28059264,64.79924584,0,0.042750336,-0.0142752,0.019500682
202,-5,1.1,4,68.27586207,2520,-12740,-770,2379,-299,7771,-1454,-7692,1286,-104,38,613,59.64,66.39903876,60.26286144,64.81495807,0,0.040395228,-0.0177312,0.015712226
202,-5,1.1,4,68.96551724,2332.486394,-12115.86624,-1192.077922,2291.733707,73.94636618,7575.895559,-1236,-8262,1218,-149,37,638,59.65401541,66.48144354,60.24743424,64.82561797,0.014015408,0.082404774,-0.0154272,0.010659903
202,-5,1.1,4,69.65517241,2126,-11462,-1420,2170,599,7313,-1472,-7520,1166,-190,41,756,59.7,66.57,60.24007104,64.82996168,0.045984592,0.088556463,-0.0073632,0.004343711
202,-5,1.1,4,70.34482759,1108,-10776,-940,2037,1065,6882,-1486,-8012,1464,-218,58,745,59.74195915,66.49663261,60.24,64.83,0.041959152,-0.073367386,-7.10E-05,3.83E-05
202,-5,1.1,4,71.03448276,1338,-11040,-666,1920,1339,6697,-1690,-8128,1306,-291,98,823,59.76,66.40825966,60.24,64.83,0.018040848,-0.088372955,0,0
202,-5,1.1,4,71.72413793,1096,-11586,-558,1721,1630,6467,-1792.343434,-8172.100802,1197.673553,-325.1777733,89.18518519,884.1502159,59.76,66.35666034,60.24,64.83,0,-0.051599316,0,0
202,-5,1.1,4,72.4137931,948,-11654,-624,1590,1809,6253,-1865.838384,-8201.383734,1111.281221,-348.915684,72.81481481,938.1290571,59.77216212,66.35,60.24,64.84011588,0.012162122,-0.006660343,0,0.010115881
202,-5,1.1,4,73.10344828,814,-11676,-538,1395,1980,5871,-1894,-8212,1076,-384,64,993,59.81617946,66.35,60.24,64.89420703,0.044017341,0,0,0.054091147
202,-5,1.1,4,73.79310345,732,-11226,-478,1236,2065,5586,-1830,-8006,1192,-463,135,1052,59.86186183,66.30253906,60.27264401,64.97475011,0.045682363,-0.047460938,0.032644006,0.080543079
202,-5,1.1,4,74.48275862,606,-10810,-140,1073,2098,5134,-1670.993658,-8152,1151.42436,-504.8018944,128.4057592,1093.021293,59.88,66.27,60.3,65.05077029,0.018138174,-0.032539062,0.027355994,0.076020179
202,-5,1.1,4,75.17241379,627.2227642,-10442.08071,63.82857552,989.5605611,2083.061891,4706.990138,-1554,-8298,1054,-532,113,1141,59.88,66.27,60.3,65.09345503,0,0,0,0.04268474
202,-5,1.1,4,75.86206897,688.4455285,-10081.7789,220.8688371,929.4400743,2040.568226,4280.627427,-1742,-7614,818,-548,79,1246,59.89714635,66.24999593,60.3,65.13640452,0.017146346,-0.020004071,0,0.042949494
202,-5,1.1,4,76.55172414,786,-9622,356,866,1974,3783,-1958,-7738,812,-570,125,1313,59.93940159,66.20069815,60.3,65.18057794,0.042255241,-0.049297781,0,0.044173418
202,-5,1.1,4,77.24137931,1112,-8876,472,788,1768,3112,-2171.624557,-7767.140676,830,-592.2563146,164.5080645,1371.537007,59.94,66.2,60.3,65.22477281,0.000598412,-0.000698148,0,0.044194869
202,-5,1.1,4,77.93103448,1090.740741,-8970.888889,560.2939905,700.2501261,1565.298581,2593.204379,-2290,-7800,848,-618,194,1413,59.94,66.18869024,60.3,65.26973169,0,-0.011309755,0,0.044958877
202,-5,1.1,4,78.62068966,1051.259259,-9147.111111,633.4803286,603.081292,1365.027998,2133.648334,-2228,-8056,650,-655,209,1430,59.94,66.07481919,60.3,65.32235583,0,-0.113871059,0,0.05262414
202,-5,1.1,4,79.31034483,1030,-9242,664,488,1169,1623,-2285,-7953.28269,496.3338192,-667.3894621,216.297561,1453.913853,59.94,66.01884382,60.28285365,65.33,0,-0.055975365,-0.017146346,0.007644174
202,-5,1.1,4,80,1200,-8730,376,331,980,979,-2342,-7794,418,-677,225,1488,59.94,65.98401042,60.24059841,65.33,0,-0.0348334,-0.042255241,0
202,-5,1.1,4,80.68965517,1438.318828,-8300.359721,141.5142018,230.0673595,875.3010237,416.6022784,-2202,-7692,798,-691,256,1550,59.9755957,65.94428215,60.24,65.37152832,0.035595703,-0.039728272,-0.000598412,0.04152832
202,-5,1.1,4,81.37931034,1630,-7992,20,160,778,-42,-2168,-7712,818,-711,266,1588,60,65.89047051,60.23505394,65.4,0.024404297,-0.053811644,-0.004946061,0.02847168
202,-5,1.1,4,82.06896552,1716.441741,-7852.228039,41.1196432,117.8378082,633.2533154,-424.4532961,-2180.444444,-7687.432315,858.6302368,-756.35274,279.9051761,1668.096064,60,65.80200867,60.1884022,65.4,0,-0.088461832,-0.04665174,0
202,-5,1.1,4,82.75862069,1778.331982,-7757.929762,88.46150863,86.38348,464.1372751,-747.7822036,-2219.555556,-7616.642409,907.9817851,-820.6273467,299.0949793,1780.108322,60,65.68018062,60.18,65.41418914,0,-0.121828051,-0.008402198,0.014189142
202,-5,1.1,4,83.44827586,1802,-7614,138,50,304,-884,-2288,-7504,932,-878,328,1885,60,65.54,60.18,65.46554271,0,-0.140180623,0,0.051353564
202,-5,1.1,4,84.13793103,1476.932715,-7249.944493,194.6570681,-7.856801634,158.3723879,-843.5604468,-2680,-7130,580,-918,399,1967,60,65.44858157,60.18,65.5188388,0,-0.091418429,0,0.05329609
202,-5,1.1,4,84.82758621,1138,-6784,230,-57,35,-762,-2789.145946,-7372.438095,361.380479,-961.8383459,454.5998749,1931,60,65.36657198,60.18,65.54,0,-0.082009594,0,0.021161203
202,-5,1.1,4,85.51724138,1122,-6388,18,-76,-48,-648,-2892,-7818,258,-987,522,1895,60,65.28663434,60.18,65.54,0,-0.079937634,0,0
202,-5,1.1,4,86.20689655,1008.523214,-6138.527157,61.82467532,-30.70744681,-106.1372479,-486.4445461,-3312.416495,-8214.480824,447.5739659,-974,712.5098039,1915,60,65.22048175,60.18,65.54,0,-0.066152594,0,0
202,-5,1.1,4,86.89655172,868,-6020,154,54,-162,-326,-3650,-8810,856,-961,858,1935,60,65.18,60.18,65.54,0,-0.040481749,0,0
202,-5,1.1,4,87.5862069,806,-6064,300,149,-234,-215,-2832,-10410,1552,-965,737,1858,60,65.18,60.18,65.49847168,0,0,0,-0.04152832
202,-5,1.1,4,88.27586207,910.2758621,-6354.573543,481.3242193,273.2054365,-322.3505915,-197.0535714,-2320,-9876,1174,-1013,610,1857,60,65.1761436,60.18,65.47577041,0,-0.003856404,0,-0.022701275
202,-5,1.1,4,88.96551724,1022,-6820,674,380,-435,-191,-2632.138675,-8343.462863,352.1652195,-1106.392871,589.7969157,1895.514706,60,65.12774204,60.18,65.53019744,0,-0.048401556,0,0.05442703
202,-5,1.1,4,89.65517241,1030.124138,-7366.024728,902.1165312,445.5785061,-604.2260032,-233.8413002,-3232,-7176,-452,-1174,583,1954,60,65.05384754,60.18,65.54,0,-0.073894502,0,0.009802565
202,-5,1.1,4,90.34482759,1038,-7776,1038,477,-811,-327,-3960,-7780,-794,-1178,583,1989,60,64.97,60.18,65.54,0,-0.083847537,0,0
202,-5,1.1,4,91.03448276,1113.6,-7876.874515,971.9166667,456.1088083,-1047.73019,-486.313545,-3872,-7668,-326,-1142,513,1978,60,64.92680174,60.18,65.54,0,-0.043198255,0,0
202,-5,1.1,4,91.72413793,1182,-7954,830,414,-1267,-714,-4102,-7932,182,-1245,601,1933,60,64.88513548,60.18,65.54,0,-0.041666267,0,0
202,-5,1.1,4,92.4137931,1146.717514,-8032.994364,653.4176442,372.246284,-1446.789041,-1080.345155,-3619.371522,-7924,600.3517394,-1341.560533,634.8331936,1948.746544,60,64.83452045,60.18,65.54,0,-0.050615031,0,0
202,-5,1.1,4,93.10344828,1022,-8196,270,284,-1541,-1328,-3060,-7916,818,-1416,654,1984,60,64.83,60.16101563,65.54,0,-0.004520447,-0.018984375,0
202,-5,1.1,4,93.79310345,-14808,-32768,-2790,-732,249,1593,-2931.628478,-8001.551136,449.1816367,-1459.41996,663.949358,2053.146963,60,64.83,60.12,65.54,0,0,-0.041015625,0
202,-5,1.1,4,94.48275862,-6346,-15813,236,-254.5,76.34917044,202.5,-2880,-8168,4,-1487,673,2150,60,64.83,60.15785874,65.54,0,0,0.037858742,0
202,-5,1.1,4,95.17241379,2116,1142,3262,223,-173,-1188,-3037.76129,-8434.448864,-96.91641934,-1499.350545,693.0471698,2262.66293,60,64.83,60.18,65.54,0,0,0.022141258,0
202,-5,1.1,4,95.86206897,-4514,-1524,-511.9714126,-207,-331.8491704,-803.5,-3276,-8620,-184,-1512,707,2369,60,64.83,60.18,65.54,0,0,0,0
202,-5,1.1,4,96.55172414,-11144,-4190,-6098,-637,-414,-419,-3416,-8388,-354,-1545,655,2437,59.97785874,64.83,60.18,65.56583147,-0.022141258,0,0,0.025831468
202,-5,1.1,4,97.24137931,-8050,-4124,-9168,-497,550,-1802,-3372,-7380,-1088,-1622,610,2560,59.94,64.83,60.18,65.61,-0.037858742,0,0,0.044168532
202,-5,1.1,4,97.93103448,-2558,-9302,-4936,178,1516,-2516,-3213.166852,-8694.757093,-762.3004971,-1653.461524,635.4814815,2608.331823,59.94,64.83,60.14214126,65.61,0,0,-0.037858742,0
202,-5,1.1,4,98.62068966,245.4800889,-10307.83011,417.2378968,51.05872757,1268.591504,-3101.114192,-2909.841856,-11138.40308,22.95456137,-1673.986801,696.5185185,2639.010155,59.94,64.8221543,60.12,65.61738281,0,-0.007845699,-0.022141258,0.007382812
202,-5,1.1,4,99.31034483,2266.883333,-10891.47061,5845.174504,-207.2158782,665.6274526,-3599.945985,-2518,-12460,980,-1701,770,2700,59.94,64.76932024,60.12,65.68261719,0,-0.052834061,0,0.065234375
202,-5,1.1,4,100,3178,-11080,8326,-413,-84,-3811,-1892,-12466,2272,-1750,866,3003,59.94,64.72621397,60.12,65.69,0,-0.043106269,0,0.007382812
202,-5,1.1,1,0,3330,-10784,5114,-505,-1152,-3733,-963.8289423,-12919.05622,1947.88286,-1852.594468,884.1424501,3406.857461,59.94,64.69,60.12,65.69,0,-0.036213972,0,0
202,-5,1.1,1,0.840336134,1784,-8080,1650,-495,-1215,-3777,38.75219549,-13749.75033,1308.210164,-1978.519456,894.6267806,3863.154096,59.94,64.66088126,60.12,65.69,0,-0.02911874,0,0
202,-5,1.1,1,1.680672269,2146.646964,-6573.028589,1254.447319,-502.4377736,-935.4191719,-4166.939754,508,-14196,852,-2040,898,4269,59.94,64.63525755,60.12,65.696839,0,-0.025623708,0,0.006838999
202,-5,1.1,1,2.521008403,3064.405038,-5454.06985,1039.112548,-524.0977694,-378.2827882,-4817.136544,298,-13788,712,-2031,798,4576,59.94,64.62092954,60.12,65.74585182,0,-0.01432801,0,0.049012823
202,-5,1.1,1,3.361344538,4282,-5016,974,-559,34,-5160,-1101.662254,-12319.77674,422.7094972,-2109.5,743.625523,4739.405521,59.94,64.62,60.12,65.79039517,0,-0.000929542,0,0.044543352
202,-5,1.1,1,4.201680672,6370,-8092,2656,-682,179,-4508,-3392,-11146,220,-2188,719,4870,59.94,64.62069815,60.12,65.83,0,0.000698148,0,0.039604826
202,-5,1.1,1,5.042016807,2480,-7264,1818,-869,-226,-4009,-6101.29805,-11675.09814,325.4895307,-2165,971.5322027,5041.321555,59.94,64.66999593,60.13391602,65.85509727,0,0.049297781,0.013916016,0.025097266
202,-5,1.1,1,5.882352941,1668,-8520,220,-910,-99,-4003,-8418,-12540,592,-2142,1388,5142,59.94,64.69,60.16101563,65.87503198,0,0.020004071,0.027099609,0.019934718
202,-5,1.1,1,6.722689076,2071.407407,-8217.185185,-131.7493915,-875.9897511,-81.06789542,-3893.038186,-9669.65296,-13355.90186,1577.752919,-2198.5,1697.317185,4812.454141,59.94,64.69,60.17932617,65.90248947,0,0,0.018310547,0.027457481
202,-5,1.1,1,7.56302521,2820.592593,-7654.814815,-335.659027,-798.8683911,-71.08950326,-3655.568368,-10250,-13836,2990,-2255,2031,4190,59.94,64.71847168,60.18,65.97819434,0,0.02847168,0.000673828,0.075704872
202,-5,1.1,1,8.403361345,3224,-7352,-436,-716,-68,-3399,-7615.625875,-12309.03681,4435.75755,-2245.744418,2529.396104,3475.369963,59.93940159,64.76,60.18,66.05,-0.000598412,0.04152832,0,0.071805663
202,-5,1.1,1,9.243697479,2848,-7766,-478,-635,-95,-3143,-4064,-9840,5294,-2218,2940,2667,59.89714635,64.76,60.18,66.05,-0.042255241,0,0,0
202,-5,1.1,1,10.08403361,2960.005862,-7823.835821,-116.5925926,-492.0611621,-89.2962963,-2866.811774,-2680,-8038,4876,-2034,3079,1884,59.88,64.7709375,60.18,66.0668097,-0.017146346,0.0109375,0,0.0168097
202,-5,1.1,1,10.92436975,3220.900613,-7848.293184,554.5925926,-327.030581,-78.7037037,-2583.015643,-1008,-4814,3764,-1555,3294,178,59.88,64.82699219,60.18,66.17577366,0,0.056054687,0,0.108963956
202,-5,1.1,1,11.76470588,3518,-7906,916,-248,-73,-2318,-703.0760907,1116.459215,204.282117,-1158.098529,1833.419123,285.5,59.88,64.83,60.18,66.23357527,0,0.003007813,0,0.057801614
202,-5,1.1,1,12.60504202,3854,-8314,660,-289,-89,-2088,-520,5136,-2574,-771,348,393,59.88,64.83,60.18,66.27456988,0,0,0,0.040994613
202,-5,1.1,1,13.44537815,4402,-7668,566,-250,-124,-1735,-272.7830826,4313.420039,-1920.462662,-321.636065,305.9944729,105.2767584,59.88,64.83,60.18,66.32231558,0,0,0,0.047745695
202,-5,1.1,1,14.28571429,3882.318814,-7965,481.3887304,-197.3795794,-128.5241935,-1475.638708,-15.69607343,2443.120104,-467.5670996,161.4159036,278.1617537,-598.3453108,59.88,64.82224529,60.1715978,66.36702195,0,-0.007754708,-0.008402198,0.044706376
202,-5,1.1,1,15.12605042,3104,-8262,436,-165,-130,-1267,186.2389725,421.2601175,1023.112013,629.7599203,262.7481576,-1478.544725,59.88,64.76950601,60.12494606,66.40751023,0,-0.052739279,-0.04665174,0.040488272
202,-5,1.1,1,15.96638655,2564.638992,-8243.944149,553.7204301,-173.3571429,-129,-1071.800581,268,-856,1790,1035,258,-2296,59.88,64.71856934,60.12,66.4500625,0,-0.050936678,-0.004946061,0.042552276
202,-5,1.1,2,16.80672269,2244,-8200,708,-183,-127,-957,62,-1290,1886,1349,416,-3027,59.88,64.69,60.12,66.4945621,0,-0.028569335,0,0.044499598
202,-5,1.1,2,17.64705882,2199.652071,-8030.055851,767.5133361,-184.4505495,-123.5,-936.5798817,-314,-1634,242,1741,522,-4002,59.88,64.69,60.12,66.54196241,0,0,0,0.047400306
202,-5,1.1,2,18.48739496,2156,-7886,808,-186,-121,-929,-471.0024861,-2036.853962,-1044.395593,2150.299192,406.1382269,-4599.113265,59.870625,64.71808607,60.12,66.59113618,-0.009375,0.028086068,0,0.049173769
202,-5,1.1,2,19.32773109,1799.919836,-7936,843.7662338,-198.9908514,-140,-934.2160752,-600,-2468,-1702,2554,174,-5043,59.82257813,64.88132676,60.12,66.63798373,-0.048046875,0.163240696,0,0.04684755
202,-5,1.1,2,20.16806723,1434,-7986,862,-222,-159,-948,-805.3649064,-2890.470891,-1247,2960.592097,-178.852918,-5381.945073,59.82,64.94604556,60.12,66.64,-0.002578125,0.064718797,0,0.002016275
202,-5,1.1,2,21.00840336,1372,-7798,860,-251,-142,-996,-974,-3354,-792,3293,-527,-5682,59.82,64.97,60.12,66.64054694,0,0.02395444,0,0.000546935
202,-5,1.1,2,21.8487395,1372,-7687.386344,822.1373057,-259.6918577,-144.6809905,-1045.987005,-1033.259378,-3922.497364,-795.2355906,3492.401824,-735.1645271,-6006.663481,59.82,64.97,60.12,66.68575145,0,0,0,0.045204513
202,-5,1.1,2,22.68907563,1372,-7636,786,-268,-151,-1105,-1070.336283,-4564.512454,-804.6934035,3645.970632,-899.6793416,-6330.323743,59.82,64.92129395,60.12,66.73773662,0,-0.048706055,0,0.051985169
202,-5,1.1,2,23.52941176,1542.592593,-7641.528183,813.4814815,-291.7437904,-167.1742541,-1188.64965,-1140,-5220,-820,3803,-1000,-6632,59.82,64.7623584,60.12,66.78104296,0,-0.158935547,0,0.043306343
202,-5,1.1,2,24.3697479,1859.407407,-7658.611922,864.5185185,-330.8901933,-194.9422606,-1291.806807,-1472.393993,-5862.438481,-926.5266272,3981.111734,-1055.343858,-6905.185234,59.82,64.795,60.09264401,66.82440431,0,0.032641602,-0.027355994,0.043361348
202,-5,1.1,2,25.21008403,2030,-7688,892,-377,-225,-1399,-2058,-6542,-1024,4163,-1080,-7152,59.82,64.82842773,60.06,66.87642979,0,0.033427734,-0.032644006,0.052025482
202,-5,1.1,2,26.05042017,1826.85264,-8191.756264,857,-449.8945327,-257.8285951,-1523.037707,-2888,-7310,-894,4348,-1053,-7364,59.82,64.7224707,60.06,66.96270047,0,-0.105957031,0,0.086270675
202,-5,1.1,2,26.8907563,1476,-8736,822,-502,-289,-1619,-3198,-7716,-654,4438,-989,-7499,59.82,64.70460411,60.06,67.05560692,0,-0.017866592,0,0.092906453
202,-5,1.1,2,27.73109244,1164,-8808,1262,-505,-310,-1652,-3482,-8222,-84,4552,-849,-7699,59.82,64.75732139,60.06,67.14861568,0,0.052717281,0,0.09300876
202,-5,1.1,2,28.57142857,1168.137339,-8738.186667,1328,-558.7290397,-347.627566,-1766.372042,-3518,-8364,180,4606,-722,-7823,59.82,64.69,60.06,67.27716225,0,-0.067321392,0,0.128546573
202,-5,1.1,2,29.41176471,1180,-8632,1350,-632,-388,-1914,-3716,-8608,284,4660,-596,-8008,59.81940159,64.62349074,60.06,67.41127397,-0.000598412,-0.066509261,0,0.13411172
202,-5,1.1,2,30.25210084,1397.119667,-8569.740055,1214.065995,-666.7732319,-416.5126481,-2020.987234,-3633.42812,-9039.360797,196.1875,4715.083574,-624.2151138,-8134.390792,59.80285365,64.72002035,60.06,67.52095219,-0.016547934,0.096529615,0,0.109678219
202,-5,1.1,2,31.09243697,1630,-8508,982,-700,-442,-2122,-3430.974988,-9616.763831,3,4770.923981,-698.2403035,-8246.375148,59.77714635,64.86997965,60.06,67.61837899,-0.025707307,0.149959292,0,0.097426797
202,-5,1.1,2,31.93277311,1659.913761,-8408.204347,738.9197135,-750.0548783,-472.6778513,-2224.491387,-3176.534361,-10182.28495,-190.1875,4824.802398,-802.1453415,-8326.421931,59.76059841,64.96650926,60.06,67.69400424,-0.016547934,0.096529615,0,0.075625253
202,-5,1.1,2,32.77310924,1674.957314,-8297.991062,488.9043012,-808.8691444,-502.5611479,-2326.982774,-2938,-10578,-278,4874,-920,-8357,59.76,64.97,60.06,67.75313059,-0.000598412,0.003490739,0,0.059126353
202,-5,1.1,2,33.61344538,1704,-8246,374,-863,-516,-2434,-2720,-10774,-268,4916,-1095,-8309,59.76,64.97,60.06,67.77886581,0,0,0,0.025735218
202,-5,1.1,2,34.45378151,1859.650796,-8466,511,-906.6329712,-509.5,-2551.340838,-2192,-10944,-288,5006,-1396,-8082,59.76,64.97,60.06,67.68698872,0,0,0,-0.091877091
202,-5,1.1,2,35.29411765,2062,-8686,648,-948,-503,-2669,-1946,-11056,-464,5046,-1579,-7871,59.76,64.98460411,60.06,67.58505103,0,0.014604112,0,-0.101937691
202,-5,1.1,2,36.13445378,2180,-8426,296,-991,-515,-2776,-2002.9742,-11201.37455,-403.4987245,4984.008843,-1694.861902,-7620.329147,59.76,65.03732139,60.06,67.49192265,0,0.052717281,0,-0.093128382
202,-5,1.1,2,36.97478992,2309.577393,-8478.850987,183.4857143,-985.4859551,-548.5741688,-2935.074841,-2152,-11308,-270,4839,-1750,-7326,59.76,65.005,60.09,67.35945615,0,-0.032321392,0.03,-0.132466492
202,-5,1.1,2,37.81512605,2384,-8590,120,-978,-574,-3093,-3042.707419,-11331.38763,61.49872449,4509.803625,-1533.183078,-6997.554904,59.76,64.97,60.12,67.21290787,0,-0.035,0.03,-0.146548289
202,-5,1.1,2,38.65546218,1726,-8766,80,-975,-561,-3197,-3884,-11356,320,4000,-1203,-6540,59.76,64.97,60.12,67.08230332,0,0,0,-0.130604544
202,-5,1.1,2,39.49579832,1944,-8578,-304,-975,-530,-3288,-3933.375709,-11688.19384,206.3740911,3315.40027,-954.7115658,-5620.153399,59.76,64.95832334,60.12512696,66.95233093,0,-0.011676665,0.005126961,-0.129972394
202,-5,1.1,2,40.33613445,1983.048329,-8238.690608,-603.2423106,-981.5,-510.2865489,-3413.49908,-3953.902403,-12260.31914,-93.02959552,2484.744901,-731.1335607,-4239.013691,59.76,64.90451597,60.15851791,66.80111091,0,-0.053807368,0.033390951,-0.151220021
202,-5,1.1,2,41.17647059,2016,-8010,-756,-988,-493,-3560,-4010,-12564,-516,1761,-634,-2724,59.76,64.85345725,60.20581438,66.67815235,0,-0.051058719,0.047296468,-0.122958555
202,-5,1.1,2,42.01680672,2145.736842,-8111.353878,-513.1480298,-977.7771739,-468.7532895,-3710.741408,-5040,-12140,-1400,1253,-894,-1064,59.75770405,64.83,60.24713931,66.64149603,-0.00229595,-0.023457249,0.041324929,-0.03665632
202,-5,1.1,2,42.85714286,2248,-8340,-50,-955,-454,-3888,-5102,-11270,-2080,541,-1057,638,59.71251781,64.83,60.28228947,66.68286587,-0.045186241,0,0.035150164,0.041369835
202,-5,1.1,2,43.69747899,2132.373281,-8728.190794,534.0732142,-896.2228261,-562.5091743,-4128.607787,-4800.223873,-12076.92468,-2518.920857,79.0356488,-1242.749515,1683.437201,59.7,64.84623535,60.31718812,66.74713413,-0.01251781,0.016235352,0.03489865,0.064268268
202,-5,1.1,2,44.53781513,1840,-9454,1122,-850,-739,-4412,-4022,-14536,-3208,-477,-1527,2176,59.7,64.89921387,60.35273405,66.78850397,0,0.052978516,0.035545926,0.041369835
202,-5,1.1,2,45.37815126,428.6267191,-12273.71377,1507.850026,-873,-865.6052048,-4751.676668,-1568,-32768,-8646,-1909,-2319,1050,59.7,64.9,60.39729927,66.79,0,0.000786133,0.044565222,0.001496031
202,-5,1.1,2,46.21848739,-806,-15078,1848,-896,-999,-5048,-5060,1860,8068,1369,-4659,4261,59.7,64.9,60.42,66.78825991,0,0,0.02270073,-0.001740086
202,-5,1.1,2,47.05882353,-793.1811146,-15837.74156,2288.22479,-841.5,-1164.036784,-5193.869503,-3264,-1448,9160,1039,-537,2814,59.7,64.9,60.42,66.74586638,0,0,0,-0.042393538
202,-5,1.1,2,47.89915966,-750,-16148,2550,-787,-1351,-5341,-20,-15626,10784,368,1184,2103,59.68444444,64.9,60.43623535,66.69847596,-0.015555556,0,0.016235352,-0.047390416
202,-5,1.1,2,48.7394958,184,-14804,800,-890,-1561,-5635,2822,-5850,4038,-181,1856,1836,59.64205761,64.9,60.48921387,66.646945,-0.042386831,0,0.052978516,-0.051530965
202,-5,1.1,2,49.57983193,1564.998676,-13537.91584,17.57456588,-816.5,-1575.622676,-5852.352492,7758.617527,-6686,-5277.894629,-1701.893219,1089.892123,2849.213566,59.64,64.9,60.49,66.52000115,-0.002057613,0,0.000786133,-0.126943849
202,-5,1.1,3,50.42016807,3422,-12848,-316,-743,-1588,-5979,11048,-7522,-11054,-2851,277,4073,59.64,64.90300781,60.49,66.40893004,0,0.003007813,0,-0.111071101
202,-5,1.1,3,51.2605042,6763.794566,-14030,1033.302423,-792.3988522,-1648.061185,-6013.530612,10275.19593,-7458.297376,-10760.28009,-2828.353127,192.3578426,4468.051679,59.64,64.9590625,60.49,66.37415731,0,0.056054687,0,-0.034772732
202,-5,1.1,3,52.10084034,9416,-15212,2854,-881,-1777,-6027,8250.734723,-7294.011662,-9964.865608,-2764.313145,124.6239877,4809.236175,59.64,64.97,60.49,66.28144127,0,0.0109375,0,-0.092716038
202,-5,1.1,3,52.94117647,9866,-14376,3566,-969,-2149,-5632,5415.54291,-7069.376093,-8796.374421,-2664.731008,72.38188534,5094.034891,59.64,64.97,60.49,66.1222058,0,0,0,-0.159235473
202,-5,1.1,3,53.78151261,7568,-12370,4152,-1159,-2878,-4642,2210.547009,-6824.623907,-7383.424398,-2535.457671,34.21498543,5319.92923,59.64,64.97,60.49662917,66.12,0,0,0.006629166,-0.002205801
202,-5,1.1,3,54.62184874,4586,-10714,4200,-1064,-3293,-3676,-923.3264579,-6599.988338,-5854.633407,-2382.344087,8.706737938,5484.400592,59.64,64.97,60.51552189,66.12,0,0,0.018892722,0
202,-5,1.1,3,55.46218487,859.6111318,-7285.238373,4247.599469,-920.4181577,-4081.5,-1718.329485,-3545.150968,-6435.702624,-4338.619319,-2211.241212,-5.55940719,5584.930382,59.64,64.97,60.54008487,66.12,0,0,0.024562977,0
202,-5,1.1,3,56.30252101,-1376,-2656,4274,-794,-4621,-354,-5214,-6372,-2964,-2028,-10,5619,59.64,64.97,60.57201636,66.0911296,0,0,0.031931498,-0.028870399
202,-5,1.1,3,57.14285714,2852,3986.038328,3642.823838,-745.4836921,-3721.83344,-784.5,-6000,-7288,-1630,-1737,108,5120,59.64,64.97,60.60842097,65.99360216,0,0,0.036404602,-0.09752744
202,-5,1.1,3,57.98319328,7080,8306,2570,-690,-2401,-1215,-5448,-7586.657514,81.87162051,-1574.951824,139.94383,4695.455085,59.64,65.00212914,60.61,65.94579297,0,0.032129136,0.001579035,-0.047809188
202,-5,1.1,4,58.82352941,5507.315234,5872.967026,1460.313177,-322.5126839,-1612.312472,-752.2364171,-4896,-7788,1118,-1501,166,4253,59.63505394,65.05195664,60.61,65.89567604,-0.004946061,0.049827506,0,-0.050116934
202,-5,1.1,4,59.66386555,2394.630468,1214.156275,324.823255,303.8535328,-944.7363382,286.7493881,-5582,-7996,142,-1522,217,3675,59.5884022,65.09011776,60.61,65.7918886,-0.04665174,0.038161113,0,-0.103787438
202,-5,1.1,4,60.50420168,150,-1710,-196,742,-416,1378,-4969,-7838,-699.346397,-1416.093407,196.5,3345.75684,59.58,65.15898315,60.61,65.73412519,-0.008402198,0.068865397,0,-0.057763406
202,-5,1.1,4,61.34453782,-776.979638,-2332.171238,1020,908.521305,-42.37427696,2478.696211,-4356,-7680,-1144,-1222,176,3050,59.58,65.25365078,60.61,65.69591419,0,0.094667625,0,-0.038211005
202,-5,1.1,4,62.18487395,-1200,-2586,2236,999,295,3426,-4659,-7808,-958.5460218,-988.8349088,187.5,2639.1144,59.58,65.30217177,60.57735599,65.58889307,0,0.048520989,-0.032644006,-0.107021122
202,-5,1.1,4,63.02521008,-194,-2368,1206,1027,699,3914,-4962,-7936,-618,-794,199,2241,59.58,65.34255449,60.55,65.4410075,0,0.040382723,-0.027355994,-0.147885571
202,-5,1.1,4,63.86554622,928.1246223,-1607.877394,-228.2886261,1137.677058,1113.697837,4545.546399,-4777,-7827,-162.4539782,-716.1335403,163.939222,1943.874932,59.58,65.38332525,60.55,65.27018834,0,0.040770758,0,-0.170819161
202,-5,1.1,4,64.70588235,1614,-1004,-1120,1322,1440,5223,-4592,-7718,138,-664,114,1692,59.58,65.42252525,60.55,65.09699247,0,0.039200003,0,-0.173195863
202,-5,1.1,4,65.54621849,1684.64986,-1232.035485,-996.5290265,1586.292217,1644.489223,5856.984173,-4844,-7960,52,-624,90,1479,59.58,65.47,60.55,64.97694405,0,0.04747475,0,-0.120048419
202,-5,1.1,4,66.38655462,1726.32493,-1774.293192,-707.2802752,1915.442045,1802.577945,6481.842005,-4530,-7844,-32,-526,138,1173,59.58,65.61593065,60.55,64.92687655,0,0.145930652,0,-0.050067504
202,-5,1.1,4,67.22689076,1740,-2418,-374,2187,1866,7108,-3844.583753,-7722.594249,158.8305921,-453.9301354,148.3303965,931.2287409,59.58,65.79213743,60.55,64.88559531,0,0.176206781,0,-0.041281242
202,-5,1.1,4,68.06722689,1607,-3270.826411,114.6784881,2367.889066,1619.972845,7758.438383,-3344,-7654,410,-402,152,756,59.58,65.95673568,60.55,64.83674826,0,0.164598249,0,-0.048847048
202,-5,1.1,4,68.90756303,1474,-4156,446,2507,1232,8372,-3328.031015,-7687.252404,523.1694079,-365.5955056,120,660.3505766,59.58,65.98,60.55,64.83,0,0.023264319,0,-0.006748259
202,-5,1.1,4,69.74789916,2208,-4746,194,2605,970,8880,-3316,-7760,576,-348,88,587,59.58,65.98,60.55,64.83,0,0,0,0
202,-5,1.1,4,70.58823529,2188,-5501.121978,-122.1108667,2731.090748,820.9288631,9202.544738,-3296.455013,-7934.747596,337,-365,138.75,504.6630477,59.58,66.12096465,60.5144043,64.74694336,0,0.140964649,-0.035595703,-0.083056641
202,-5,1.1,4,71.42857143,2168,-6204,-312,2867,703,9470,-3252,-8070,98,-382,200,450,59.58,66.33002649,60.49,64.69,0,0.209061846,-0.024404297,-0.056943359
202,-5,1.1,4,72.26890756,2248.477096,-6603.64554,-215,2988.965085,587.6955304,9768.045951,-2226,-7386,666,-343,214,437,59.58,66.54047473,60.49,64.69,0,0.21044824,0,0
202,-5,1.1,4,73.1092437,2394,-7062,-118,3125,481,9983,-2310,-7872,578,-299.2842466,239.4297261,488.6953064,59.59714635,66.52713413,60.49,64.69,0.017146346,-0.013340601,0,0
202,-5,1.1,4,73.94957983,2542,-8208,-620,3318,382,10057,-2394,-8358,490,-274,264,569,59.63940159,66.42149603,60.49,64.69,0.042255241,-0.105638103,0,0
202,-5,1.1,4,74.78991597,2531.586006,-8783.876947,-615.2551814,3313.059552,600.8600583,10007.45836,-2284.339298,-8283.133821,579.3653242,-288.6345629,275.0411856,614.9611981,59.64,66.50898926,60.49,64.74737993,0.000598412,0.087493227,0,0.057379935
202,-5,1.1,4,75.6302521,2504.728863,-9186.971301,-598.9594481,3297.082861,1165.28863,9871.983645,-2050.678595,-8089.15653,783.3973151,-325.7135703,282.9594307,655.8876578,59.64387467,66.55615723,60.49,64.85405523,0.003874669,0.047167969,0,0.106675297
202,-5,1.1,4,76.47058824,2468.005831,-9487.948658,-568.0208841,3268.336905,1937.058309,9670.301174,-1836,-7822,1006,-375,297,718,59.68725898,66.43384277,60.49,65.01455001,0.043384312,-0.122314453,0,0.16049478
202,-5,1.1,4,77.31092437,2427.994169,-9757.474612,-519.3475733,3225.088663,2777.941691,9422.136259,-1694,-7308,1232,-460,347,868,59.73095176,66.53070629,60.49,65.00610145,0.043692775,0.096863516,0,-0.008448559
202,-5,1.1,4,78.1512605,2391.271137,-10066.21476,-449.8475998,3165.605112,3549.71137,9147.214215,-1938,-7146,774,-538,234,1111,59.76,66.72,60.49,64.9,0.029048244,0.189293711,0,-0.106101452
202,-5,1.1,4,78.99159664,2364.413994,-10484.83469,-356.4290473,3088.153232,4114.139942,8865.260357,-2310,-7702,680,-601,326,1284,59.76,66.43605943,60.47539589,64.81934376,0,-0.283940566,-0.014604112,-0.080656235
202,-5,1.1,4,79.83193277,2354,-11084,-236,2991,4333,8596,-2094.814815,-7815.693542,814.8148148,-699.1395791,364.63453,1456.430781,59.76,66.28708211,60.44583147,64.74242008,0,-0.148977323,-0.029564421,-0.076923683
202,-5,1.1,4,80.67226891,3722,-12360,854,2498,4316,8299,-1695.185185,-7877.680104,1065.185185,-814.8042723,390.3438922,1627.321196,59.76,66.45574123,60.42267861,64.6949655,0,0.168659121,-0.02315286,-0.047454583
202,-5,1.1,4,81.51260504,3790.61889,-13125.87945,560.2300319,2031.11504,4103.678745,8029.678982,-1480,-7932,1200,-904,415,1791,59.77597391,66.53659013,60.42,64.69,0.015973909,0.080848899,-0.002678608,-0.004965498
202,-5,1.1,4,82.35294118,3826,-13484,254,1667,3745,7720,-1638.410743,-8005.037037,989.4814815,-955.5589427,446.2545255,1937.686153,59.82,66.57,60.42,64.69,0.044026091,0.033409868,0,0
202,-5,1.1,4,83.19327731,3861.169082,-12578.97585,235.2342538,1426.070076,3398.728949,7262.455222,-1993.265931,-8072.407407,598.5185185,-995.586851,476.5623055,2078.028364,59.86613083,66.46746094,60.4334967,64.72859761,0.046130827,-0.102539063,0.013496704,0.038597612
202,-5,1.1,4,84.03361345,3906,-11164,228,1310,3007,6661,-2364,-8102,388,-1036,495,2237,59.88,66.42883402,60.46472839,64.83014732,0.013869173,-0.038626918,0.031231689,0.101549706
202,-5,1.1,4,84.87394958,4089.135266,-10154.45115,227.0833333,1325.5,2541.441679,5837.008086,-2702,-7942,392,-1081,501,2441,59.88,66.48116598,60.48826965,64.94223752,0,0.052331962,0.02354126,0.112090199
202,-5,1.1,4,85.71428571,4240,-9344,226,1341,2070,4894,-2356,-7628,458,-1121,496,2492,59.89371094,66.42023208,60.49,65.03284248,0.013710938,-0.060933904,0.001730347,0.090604965
202,-5,1.1,4,86.55462185,4176,-8848,180,1277,1675,3980,-2600,-7520,476,-1214,558,2670,59.94,66.2,60.49,65.11,0.046289062,-0.220232077,0,0.077157518
202,-5,1.1,4,87.39495798,4354,-9396,-58,1064,1113,2438,-2664.401434,-7627.059023,507.2128713,-1305.959872,607.3119977,2792.118228,59.98041009,66.04430566,60.49,65.15252775,0.040410091,-0.155694342,0,0.042527745
202,-5,1.1,4,88.23529412,4520,-9728,-2,832,770,1348,-2728,-7890,528,-1392,661,2894,60.00909288,65.95208888,60.49,65.19633562,0.028682787,-0.09221678,0,0.043807871
202,-5,1.1,4,89.07563025,4718.052489,-9610.760736,85.53424658,510.7253695,429.4712907,187.2479077,-2958,-8580,216,-1465,745,2987,60.02600678,65.89015825,60.49,65.25468322,0.016913901,-0.061930631,0,0.058347603
202,-5,1.1,4,89.91596639,4964,-9308,142,173,75,-893,-2818,-8880.355642,133.3271648,-1530.420548,815.5197274,3127.906903,60.04051494,65.84651369,60.46416853,65.26,0.014508161,-0.043644555,-0.025831468,0.005316781
202,-5,1.1,4,90.75630252,5326,-8348,-212,-107,-321,-1729,-2558,-9086.41575,88.12613972,-1589.972317,876.2043082,3294.806792,60.06,65.83,60.42,65.26,0.01948506,-0.016513693,-0.044168532,0
202,-5,1.1,4,91.59663866,5374,-7878,-524,-184,-616,-2087,-2418,-9180,18,-1633,902,3435,60.1020016,65.83,60.42,65.26,0.042001597,0,0,0
202,-5,1.1,4,92.43697479,4887.735414,-6223.950613,796.6666667,-42.96296296,-1000.882693,-2443.933545,-2523.292517,-9200.127675,-177.0532672,-1658.894684,840.5,3523.706731,60.12,65.80645874,60.41692352,65.26146348,0.017998403,-0.02354126,-0.00307648,0.001463485
202,-5,1.1,4,93.27731092,3662.804161,-3859.753084,3249.333333,218.962963,-1452.294933,-2772.688995,-2702,-9216,-392,-1678,779,3612,60.12,65.58072225,60.38809341,65.27590796,0,-0.225736491,-0.028830111,0.014444478
202,-5,1.1,4,94.11764706,2050,-2656,4570,360,-1943,-2917,-2890.707483,-9236.825044,-537.7936508,-1692.734541,809.5631094,3738.431349,60.12,65.50573015,60.34322065,65.30081441,0,-0.074992096,-0.044872757,0.024906449
202,-5,1.1,4,94.95798319,-654,-8324,924,-765,-2497,-2313,-3006,-9278,-612,-1707,866,3892,60.12,65.46402917,60.3,65.33,0,-0.04170098,-0.043220652,0.029185588
202,-5,1.1,4,95.79831933,-9522,-6220,-5794,-1467,-2505,-2181,-2404,-9670,-606,-1726,927,4079,60.12,65.38360367,60.25385208,65.38196684,0,-0.080425502,-0.046147924,0.051966843
202,-5,1.1,4,96.63865546,-6087.646189,-8912,-5384.984513,-1120.148129,-732.5,-3270.139518,-1713.389058,-11715.95004,37.18753864,-1740.21595,1010.431857,4316.270095,60.12,65.29274322,60.24,65.4,0,-0.090860454,-0.013852076,0.018033157
202,-5,1.1,4,97.4789916,-652,-11604,-4344,-533,1040,-4845,-818,-14846,1100,-1761,1062,4591,60.12,65.19904303,60.24,65.4,0,-0.093700183,0,0
202,-5,1.1,4,98.31932773,3986.685501,-10865.87271,802.2395433,82.1481289,382.7922181,-5801.564311,1163.93111,-18589.38494,2159.497353,-1885.084476,954.9069854,4884.813604,60.11817205,65.14872015,60.24,65.42583147,-0.001827951,-0.050322883,0,0.025831468
202,-5,1.1,4,99.15966387,6642,-9208,5506,457,-486,-6374,2604,-20934,2794,-2070,773,5246,60.11037189,65.11657783,60.24,65.47,-0.007800162,-0.032142324,0,0.044168532
202,-5,1.1,4,100,6662,-5990,5724,-802,-798,-6502,1408,-16928,1636,-2222,619,5795,60.09862177,65.09362517,60.24,65.47,-0.011750116,-0.022952655,0,0
202,-5,1.1,1,0,3855,-4980.425727,2682.416874,-1362.399072,-690.134196,-6851.157689,-62,-14152,1026,-2319,547,6080,60.08531561,65.07367663,60.24,65.47,-0.013306158,-0.019948548,0,0
202,-5,1.1,1,0.884955752,1048,-4590,-1594,-1601,-435,-7114,-3794,-11256,-266,-2430,612,6354,60.07284732,65.05054662,60.24,65.47,-0.012468289,-0.023130003,0,0
202,-5,1.1,1,1.769911504,5268,-5734,-3554,-1116,152,-6400,-7092,-12098,316,-2546,874,6694,60.06361082,65.0180496,60.2155957,65.49343046,-0.009236508,-0.032497021,-0.024404297,0.023430462
202,-5,1.1,1,2.654867257,4925.777778,-6710.888889,-2291.407407,-925.5922649,85.74514469,-5809.230125,-10120.30637,-14126.80775,1464.284832,-2476.290388,1205.519699,6529.004971,60.06,64.97,60.18,65.54293491,-0.003610816,-0.048049601,-0.035595703,0.049504448
202,-5,1.1,1,3.539823009,4290.222222,-7557.111111,53.40740741,-799.7022779,-38.73193284,-5278.31003,-11756,-15608,2812,-2347,1595,6151,60.06,64.84291422,60.18,65.57197081,0,-0.127085777,0,0.029035902
202,-5,1.1,1,4.424778761,3948,-7918,1316,-727,-110,-4782,-9777.5625,-14833.95361,4133.960494,-2223.675669,2145.9198,4996.703569,60.050625,64.7145,60.18,65.59610929,-0.009375,-0.128414223,0,0.024138479
202,-5,1.1,1,5.309734513,3963.995157,-7903.9375,968.3561565,-692.186128,-115.1014002,-4319.052706,-5425,-12768.54297,5531.909328,-2084.546667,2819.5676,3006.812736,60.00257813,64.62371875,60.18,65.60916752,-0.048046875,-0.09078125,0,0.013058225
202,-5,1.1,1,6.194690265,4014.487085,-7873,200.283084,-674.1314443,-117.3339161,-3887.975453,-1072.4375,-9796.860839,6639.403498,-1918.394333,3389.6816,1112.765535,60,64.62,60.18,65.61,-0.002578125,-0.00371875,0,0.000832484
202,-5,1.1,1,7.079646018,4103.23547,-7842.0625,-575.9315305,-652.7610385,-119.649474,-3463.160473,906,-6304,7090,-1714,3630,246,60,64.62078838,60.18,65.61,0,0.000788385,0,0
202,-5,1.1,1,7.96460177,4234,-7828,-948,-608,-125,-3019,-2074,1155.271484,4801.920918,-1393.743747,2699.073602,222.5243749,60,64.6924079,60.18,65.65397846,0,0.071619513,0,0.04397846
202,-5,1.1,2,8.849557522,4872,-7924,-968,-357,-154,-2541,-5054,6802,696,-1016,1181,198,59.99421578,64.8248945,60.18,65.70768929,-0.005784222,0.1324866,0,0.053710828
202,-5,1.1,2,9.734513274,4446,-7743,-174,-327.6023551,-136.7058824,-2156.088683,-210,3690,-3388,-679,44,53,59.95234688,65.02170568,60.18,65.74830328,-0.041868899,0.196811181,0,0.040613994
202,-5,1.1,2,10.61946903,4020,-7562,620,-317,-112,-1856,492.8835881,1845.360126,-2903.620793,15.42990285,-230.2501824,-771.6625676,59.90753926,64.97267285,60.18,65.78751108,-0.04480762,-0.049032827,0,0.039207803
202,-5,1.1,2,11.50442478,4140,-7922,620,-315,-100,-1666,726,650,-1868,655,-330,-1956,59.88,64.81919922,60.18,65.83,-0.02753926,-0.153473633,0,0.042488915
202,-5,1.1,2,12.38938053,4057.057692,-8078.307092,511.9353312,-246.7307039,-130,-1374.610244,206,46,-144,883,-85,-2872,59.88,64.71119141,60.18,65.88017542,0,-0.108007812,0,0.050175424
202,-5,1.1,2,13.27433628,3836,-8194,358,-158,-160,-1084,258,-542,1932,1369,106,-4018,59.88,64.69,60.189375,65.92825471,0,-0.021191406,0.009375,0.048079283
202,-5,1.1,2,14.15929204,3038,-8314,284,-125,-114,-896,396,-914,1394,1646,75,-4662,59.88,64.69,60.23742188,65.97151482,0,0,0.048046875,0.043260112
202,-5,1.1,2,15.04424779,2686,-7642,500,-119,-121,-779,-326,-1300,-950,2080,-278,-5448,59.88,64.69,60.24,66.01023958,0,0,0.002578125,0.038724756
202,-5,1.1,2,15.92920354,2488,-7794,906,-144,-111,-648,-378,-1532,-2184,2449,-507,-5888,59.88,64.6909264,60.24,66.05598135,0,0.000926402,0,0.045741772
202,-5,1.1,2,16.81415929,2430,-8016,1438,-146,-109,-555,-800.2301823,-1848.47367,-2019.814891,2974.649752,-873.2522992,-6277.914464,59.88,64.76867045,60.24,66.14266232,0,0.077744051,0,0.086680976
202,-5,1.1,2,17.69911504,2250,-7152,1218,-200,-138,-511,-1184,-2230,-1666,3443,-1137,-6647,59.870625,64.86212001,60.2315978,66.23744882,-0.009375,0.093449557,-0.008402198,0.094786497
202,-5,1.1,2,18.5840708,2054.149962,-7278.170635,918.1365283,-239.8373728,-155.0348584,-532.6098913,-1188.005189,-2658.095577,-863.1851086,3692.51686,-1181.403763,-7003.528093,59.82257813,64.94776869,60.18494606,66.32962059,-0.048046875,0.085648683,-0.04665174,0.092171772
202,-5,1.1,2,19.46902655,1867.297203,-7571.452382,604.846042,-272.4742419,-167.9063181,-585.1086715,-1192,-3182,-250,3877,-1198,-7366,59.82,65.12563259,60.18,66.38110642,-0.002578125,0.1778639,-0.004946061,0.051485828
202,-5,1.1,2,20.3539823,1784,-7904,460,-286,-173,-650,-1399.707005,-3874.927325,-258.1581728,4032.603338,-1000.981586,-7781.266068,59.82,65.27265008,60.18,66.42692805,0,0.147017484,0,0.045821624
202,-5,1.1,2,21.23893805,1926,-8276,820,-286,-169,-741,-1828,-4764,-286,4162,-703,-8177,59.82,65.32049989,60.18,66.54161865,0,0.047849814,0,0.114690607
202,-5,1.1,2,22.12389381,1868.833773,-8066,979.9402985,-323,-187.5847953,-787.6944781,-2498,-5994,-1068,4268,-527,-8481,59.829375,65.31549931,60.18,66.57,0.009375,-0.005000581,0,0.028381348
202,-5,1.1,2,23.00884956,1742,-7856,1048,-360,-225,-836,-2578,-7136,-1686,4298,-506,-8634,59.87742188,65.2046913,60.18,66.57,0.048046875,-0.11080801,0,0
202,-5,1.1,2,23.89380531,1457.793476,-7868.42807,1022,-352,-284.2241219,-938.4103719,-2617.534471,-8263.400481,-1444.679229,4495.957143,-497.0443723,-8774.079614,59.88,65.03932006,60.15264401,66.64393934,0.002578125,-0.165371244,-0.027355994,0.073939345
202,-5,1.1,2,24.77876106,1168,-7902,996,-344,-340,-1074,-2660,-8962,-1028,4670,-491,-8907,59.88,64.89317288,60.12,66.80314052,0,-0.146147171,-0.032644006,0.159201178
202,-5,1.1,2,25.66371681,1058.400788,-8174.57193,1060,-375.4040179,-361.9410828,-1233.5518,-2804.781046,-9068.987708,-577.0887774,4637.726496,-484.7729678,-9062.391488,59.88,64.83885193,60.12,66.93285013,0,-0.054320956,0,0.129709609
202,-5,1.1,2,26.54867257,964,-8426,1124,-432,-382,-1382,-3008.612745,-9121.401773,-107.0999443,4566.119658,-479.3309283,-9213.862411,59.88168,64.83196,60.12,67.0880043,0.00168,-0.006891929,0,0.155154167
202,-5,1.1,2,27.43362832,824,-8406,1066,-489,-417,-1474,-3112,-9226,110,4493,-477,-9282,59.89296,64.84512,60.12,67.2813716,0.01128,0.01316,0,0.193367305
202,-5,1.1,2,28.31858407,834.7733813,-8383.578564,1000.015269,-556.4394264,-402.5,-1672.195426,-3078,-9682,-500,4430,-580,-9274,59.91,64.865,60.12,67.46915296,0.01704,0.01988,0,0.187781353
202,-5,1.1,2,29.20353982,864,-8360,948,-631,-388,-1915,-3010.124872,-10428.68238,-1202.137928,4371.918697,-832.1825685,-9304,59.92704,64.88488,60.12,67.68051028,0.01704,0.01988,0,0.211357323
202,-5,1.1,2,30.08849558,978,-8336,926,-713,-439,-2123,-2914,-11102,-1772,4339,-1243,-9334,59.93832,64.89804,60.12,68.00004861,0.01128,0.01316,0,0.319538324
202,-5,1.1,2,30.97345133,1404,-8398,738,-815,-473,-2322,-2786,-11394,-2036,4337,-1932,-9236,59.94,64.88376465,60.12,68.09,0.00168,-0.014275352,0,0.089951395
202,-5,1.1,2,31.85840708,1266,-8815.773385,820,-858.4560849,-508.0125644,-2477.789299,-2697.425178,-11234.55564,-1853.443797,4305.178144,-2516.064703,-9006.099541,59.94,64.83078613,60.12,68.09,0,-0.052978516,0,0
202,-5,1.1,2,32.74336283,1128,-9184,902,-895,-549,-2628,-2654,-10936,-1536,4235,-2911,-8684,59.91526969,64.93040505,60.12,68.0389924,-0.024730307,0.099618915,0,-0.051007595
202,-5,1.1,2,33.62831858,1242.592593,-9054.888889,846.330478,-956.903053,-622.2748684,-2810.203094,-2860,-10600,-1248,4087,-3051,-8313,59.87220843,65.05229595,60.11983805,67.91887002,-0.043061266,0.121890902,-0.00016195,-0.120122388
202,-5,1.1,2,34.51327434,1455.407407,-8815.111111,713.7720672,-1025.981397,-708.4707675,-3002.593268,-3864,-10770,-550,3697,-2985,-7665,59.82885406,65.10180745,60.10444444,67.79547568,-0.043354366,0.0495115,-0.015393605,-0.123394339
202,-5,1.1,2,35.39823009,1570,-8686,556,-1067,-750,-3167,-4359.544853,-11804.06754,-377.5343767,3246.254016,-2890.525303,-7148.721476,59.82,65.07940341,60.07803156,67.6543211,-0.008854061,-0.022404037,-0.026412889,-0.141154577
202,-5,1.1,2,36.28318584,1230,-8824,356,-1077,-749,-3285,-4718,-12704,-252,2782,-2749,-6555,59.82,64.92785944,60.06063444,67.50144883,0,-0.151543969,-0.017397112,-0.152872268
202,-5,1.1,2,37.16814159,594,-9688,422,-1058,-792,-3554,-4985.778261,-12640.00805,-78.40381248,2364.112137,-2459.14397,-5501.605869,59.7975,64.76953766,60.0777543,67.29785333,-0.0225,-0.158321783,0.017119853,-0.203595503
202,-5,1.1,2,38.05309735,764.0740741,-9774.418937,161.1851852,-1075.111111,-811.3458055,-3796.898624,-5320,-12462,148,1918,-2054,-4165,59.75245264,64.69300781,60.12528883,67.17,-0.045047362,-0.076529848,0.047534537,-0.12785333
202,-5,1.1,2,38.9380531,1079.925926,-9810.295682,-323.1851852,-1106.888889,-824.5449012,-4032.029561,-6276,-11682,546,1344,-1583,-2715,59.71451285,64.7490625,60.20552663,67.17,-0.037939791,0.056054688,0.080237797,0
202,-5,1.1,2,39.82300885,1250,-9882,-584,-1124,-847,-4299,-5653.777778,-17148.74074,-903.7777778,285.9342451,-937.8467577,-1219.817158,59.67502181,64.7237037,60.26182498,67.18623535,-0.039491035,-0.025358796,0.056298345,0.016235352
202,-5,1.1,2,40.7079646,809.7185741,-10130.95676,-145.9178808,-1090,-922.0451207,-4636.656016,-4498.222222,-27301.25926,-3596.222222,-955.4217663,-262.4789344,243.7612349,59.64135964,64.6248011,60.29642214,67.23921387,-0.033662171,-0.098902606,0.034597163,0.052978516
202,-5,1.1,2,41.59292035,10,-10750,708,-1056,-1038,-5011,-3876,-32768,-5046,-1553,50,1385,59.64,64.67302511,60.33198009,67.21176348,-0.00135964,0.04822401,0.035557949,-0.027450383
202,-5,1.1,2,42.47787611,-814,-14700,1788,-1073,-1173,-5392,-8838,-19126,860,-1188,-1477,2090,59.64,64.77857296,60.36779157,67.1610116,0,0.105547855,0.035811485,-0.050751883
202,-5,1.1,2,43.36283186,-798,-16574.40853,2382,-1075.259934,-1260.812448,-5466.705498,-7222.039502,-14064.76931,5528.88068,-199.6849892,462.5,2433.03438,59.64,64.87960227,60.41114594,67.11307348,0,0.101029312,0.043354366,-0.047938123
202,-5,1.1,2,44.24778761,-782,-17388,2652,-1076,-1353,-5535,-3912,-11054,7924,543,2402,2748,59.64,64.88376465,60.42,67.07041683,0,0.004162374,0.008854061,-0.042656651
202,-5,1.1,2,45.13274336,-928,-15254,2134,-971,-1514,-5777,2211.255412,-8552.024282,2989.259259,-354.8148148,2158.294969,3201.852233,59.64,64.83078613,60.42,67.03071175,0,-0.052978516,0,-0.039705081
202,-5,1.1,2,46.01769912,-397.6068915,-14374.80284,712.0417118,-881.2010051,-1800.078711,-5893.180227,10033.51659,-6554.345474,-6175.259259,-2022.185185,1525.256605,3765.667492,59.64,64.83,60.42,66.95226064,0,-0.000786133,0,-0.078451108
202,-5,1.1,2,46.90265487,822,-13848,-360,-801,-1992,-6018,13898,-5738,-11110,-2920,650,4477,59.64,64.83151173,60.42,66.85113159,0,0.001511735,0,-0.101129044
202,-5,1.1,3,47.78761062,4015.638542,-13449.0997,-358.497907,-713.534202,-1957,-6456.59771,8086,-9626,-10234,-1780,-1055,5576,59.64,64.87139341,60.42,66.75628212,0,0.039881678,0,-0.094849479
202,-5,1.1,3,48.67256637,7314,-13258,-354,-664,-1922,-6803,-776,-9220,-688,-851,-1162,5822,59.64,64.94575338,60.42,66.65755453,0,0.074359965,0,-0.098727587
202,-5,1.1,3,49.55752212,8761.96835,-14061,1421.346958,-701.7913386,-2105.383938,-6553.600612,-6592.541374,-7400.400168,2460.679104,-1091.010279,-474.3809524,5878.171941,59.64,65.03875706,60.42,66.5733991,0,0.093003678,0,-0.084155428
202,-5,1.1,3,50.44247788,9416,-14864,3940,-780,-2503,-5980,-9394,-5582,3694,-1552,282,5920,59.64,65.01143066,60.42,66.57,0,-0.027326392,0,-0.003399101
202,-5,1.1,3,51.32743363,6110,-12744,5140,-898,-3194,-4778,-7867.815222,-5055.5801,1392.312116,-2260.489721,392.3809524,6010.896,59.64,64.96049399,60.42186406,66.57,0,-0.050936678,0.001864065,0
202,-5,1.1,3,52.21238938,3454,-10684,5362,-991,-3623,-3668,-5888,-4838,-1284,-2748,434,6072,59.64,64.90775471,60.46562137,66.57,0,-0.052739279,0.043757308,0
202,-5,1.1,3,53.09734513,-244.5598579,-5685.461001,5317.530791,-982.8398268,-4578.566462,-1527.676443,-5049.184778,-6075,-1912.312116,-2283.120319,173,5906.94259,59.64,64.92000407,60.51318807,66.54497858,0,0.012249363,0.047566697,-0.025021424
202,-5,1.1,3,53.98230088,-2544,-192,5190,-962,-5262,-57,-4664,-7312,-2166,-1724,-88,5576,59.64,64.96930185,60.54955606,66.42967707,0,0.049297781,0.036367987,-0.115301502
202,-5,1.1,3,54.86725664,1095,3753.86309,3340.214846,-896.8935605,-4054.081893,-618.5,-4695,-7120,-646,-1587.442627,52.71708683,5111.417911,59.60735599,64.97,60.55,66.34001399,-0.032644006,0.000698148,0.000443942,-0.08966308
202,-5,1.1,3,55.75221239,4734,5794,328,-760,-2354,-1180,-4726,-6928,874,-1493,216,4574,59.58,64.97,60.55063444,66.25239173,-0.027355994,0,0.000634444,-0.087622262
202,-5,1.1,3,56.63716814,2645.492147,2964.653056,-2848.745637,-317.9902548,-1523.75406,-761.1427377,-4674.056028,-7008.730853,85.07974684,-1404.620006,251.8279951,4081.292887,59.58,64.97,60.56803156,66.16450445,0,0,0.017397112,-0.087887286
202,-5,1.1,4,57.52212389,314,-500,-4780,272,-866,64,-4522,-7240,-1118,-1303,269,3662,59.58,65.00228656,60.59444444,66.0767148,0,0.032286558,0.026412889,-0.087789645
202,-5,1.1,4,58.40707965,-80.4921466,-1613.653056,-2231,746.104284,-257.8854417,1201.522047,-3650,-8416,-1848,-1116,274,3391,59.58,65.11,60.60983805,65.98880582,0,0.107713442,0.015393605,-0.087908984
202,-5,1.1,4,59.2920354,-232,-2092,318,1118,255,2407,-4318.492897,-7972,-1652.527027,-850.2341963,192.5,3119.497403,59.58,65.19323094,60.61,65.90499103,0,0.083230945,0.00016195,-0.083814788
202,-5,1.1,4,60.17699115,-32.79693286,-1780.201306,260.0495329,1325.704686,684.7849994,3275.895414,-5194,-7528,-1188,-637,111,2789,59.58,65.27685653,60.61,65.80714719,0,0.083625585,0,-0.097843839
202,-5,1.1,4,61.0619469,431.7394676,-1187.958167,105.210177,1480.424416,1059.090725,4031.802319,-5496,-7620,-102,-567,173,2241,59.58,65.3615214,60.61,65.66814366,0,0.084664873,0,-0.139003526
202,-5,1.1,4,61.94690265,962,-830,-118,1661,1352,4744,-5350,-7326,682,-544,147,1967,59.58,65.47111528,60.60724116,65.52046814,0,0.109593875,-0.00275884,-0.147675524
202,-5,1.1,4,62.83185841,1720.146549,-772.6901975,-827.9723912,1915.120567,1601.392997,5432.255135,-4536,-7744,786,-532,95,1557,59.58,65.59904209,60.59264273,65.36099913,0,0.127926816,-0.014598427,-0.159469011
202,-5,1.1,4,63.71681416,2230,-750,-1414,2202,1729,6073,-4306.156968,-7868.579671,532.962963,-514.2440542,111.0740741,1277.064932,59.58,65.6932837,60.57013682,65.20945369,0,0.094241608,-0.022505917,-0.151545441
202,-5,1.1,4,64.60176991,2121.044219,-1060.694579,-1225.093925,2503.846313,1656.306428,6649.713409,-4177.276982,-7941.965974,63.03703704,-489.0887091,140.9259259,1049.806516,59.58,65.80022243,60.54358095,65.08768061,0,0.106938733,-0.026555868,-0.121773081
202,-5,1.1,4,65.48672566,1865.866216,-1802.944714,-816.6322935,2818.380506,1472.723966,7196.149735,-3984,-8020,-190,-452,157,865,59.58,65.95700498,60.49749373,64.98388948,0,0.15678255,-0.046087218,-0.103791125
202,-5,1.1,4,66.37168142,1572,-2692,-426,3115,1230,7792,-3496.776634,-8150.742896,-113,-355.1048007,122,714.9400832,59.59714635,65.98,60.49,64.97,0.017146346,0.022995016,-0.007493729,-0.01388948
202,-5,1.1,4,67.25663717,1230,-3838,-140,3376,818,8505,-2946,-8232,-36,-236,87,596,59.63940159,65.98,60.49,64.97,0.042255241,0,0,0
202,-5,1.1,4,68.14159292,1658,-4566,-306,3516,549,9022,-2598,-7884,-108,-158,151,507,59.64,66.16264568,60.49,65.00063056,0.000598412,0.182645681,0,0.030630558
202,-5,1.1,4,69.02654867,1682,-5120,-680,3644,381,9450,-2230,-7458,366,-144,107,470,59.64,66.40199699,60.49,65.04932024,0,0.23935131,0,0.048689682
202,-5,1.1,4,69.91150442,1758,-5936,-676,3706,339,9613,-2215.71434,-7212.985571,287,-179.195122,162.2194245,472.4882353,59.64,66.55117013,60.49,65.1021543,0,0.149173142,0,0.052834061
202,-5,1.1,4,70.79646018,1885.709218,-6801.63932,-488.230444,3752.71619,244.3548149,9869.366937,-2204,-7100,208,-218,226,479,59.64,66.57,60.49,65.11,0,0.018829866,0,0.007845699
202,-5,1.1,4,71.68141593,2102,-7850,-304,3805,92,10076,-2103.282407,-7481.355372,352.6774194,-222.1186035,240.2805755,506.8553666,59.64,66.57,60.49,65.11,0,0,0,0
202,-5,1.1,4,72.56637168,2652,-9470,-602,3898,-170,10135,-2014,-7924,598,-226,246,555,59.64,66.61416853,60.49,65.06847168,0,0.044168532,0,-0.04152832
202,-5,1.1,4,73.45132743,2434.222222,-10959.89081,-393.037037,3884.925097,-157.3557404,10127.87662,-2204,-8026.644628,810.6298583,-242.5269825,222.5,615.2342283,59.64494606,66.62289058,60.49,65.04892956,0.004946061,0.008722046,0,-0.019542124
202,-5,1.1,4,74.33628319,2029.777778,-12292.19596,-4.962962963,3849.627973,-119.8225919,10106.3088,-2394,-8068,1014,-269,199,690,59.6915978,66.42707461,60.49,65.14638529,0.04665174,-0.195815964,0,0.09745573
202,-5,1.1,4,75.22123894,1812,-12904,204,3798,-58,10070,-2299.809524,-7825,1222.692722,-298.8835911,250.226626,773.5727193,59.7,66.24069009,60.46999593,65.20949587,0.008402198,-0.186384524,-0.020004071,0.063110588
202,-5,1.1,4,76.10619469,1960,-12954.97875,-199.1477547,3668.784573,325.4938638,9737.592123,-2118,-7582,1340,-339,332,873,59.7,66.12,60.42069815,65.25409583,0,-0.12069009,-0.049297781,0.044599952
202,-5,1.1,4,76.99115044,2108,-12974,-950,3474,952,9252,-1895.820911,-7627,1215.092593,-403.4675614,403.773374,996.6908103,59.7,66.12,60.42,65.35363178,0,0,-0.000698148,0.099535952
202,-5,1.1,4,77.87610619,1948,-12038,-1782,3256,1565,8938,-1638,-7672,960,-483,445,1145,59.7,66.12,60.42,65.4,0,0,0,0.046368222
202,-5,1.1,4,78.76106195,1969.968362,-11425.01696,-1358.485714,3067.661666,2030.393294,8564.195306,-1386,-7622,590,-565,286,1328,59.7,66.12,60.42,65.4,0,0,0,0
202,-5,1.1,4,79.6460177,2038,-11130,-810,2876,2358,8208,-1342,-8138,712,-665,348,1507,59.71386917,66.12,60.42,65.35570313,0.013869173,0,0,-0.044296875
202,-5,1.1,4,80.53097345,2606,-11440,-630,2644,2518,7946,-1588,-8500,1054,-786,349,1809,59.76,66.12,60.42,65.26,0.046130827,0,0,-0.095703125
202,-5,1.1,4,81.4159292,2694,-12226,-568,2290,2628,7525,-1450,-8488.859177,1252.309842,-900.3029659,386.4404762,1936.465554,59.79521559,66.21464686,60.42,65.29087048,0.035215593,0.094646855,0,0.03087048
202,-5,1.1,4,82.30088496,2708,-12286,-520,2089,2649,7180,-1312,-8452,1344,-997,423,2032,59.83274102,66.26154643,60.42,65.3502275,0.037525426,0.04689957,0,0.059357025
202,-5,1.1,4,83.18584071,2854.432231,-11882.32353,-418.1355598,1872.222206,2595.180422,6618.6039,-1454,-7850,1282,-1062,381,2137,59.87612533,66.15719597,60.42,65.44102121,0.043384312,-0.104350458,0,0.090793703
202,-5,1.1,4,84.07079646,3138,-11066,-300,1660,2475,5834,-1684,-7652,818,-1147,423,2309,59.88,65.99171176,60.42,65.49953227,0.003874669,-0.16548421,0,0.058511066
202,-5,1.1,4,84.95575221,3570,-9916,-212,1474,2246,4645,-2200,-7692,608,-1205,499,2456,59.88,65.83196703,60.42,65.54,0,-0.159744726,0,0.040467726
202,-5,1.1,4,85.84070796,3520,-9600,-102,1319,2095,3718,-2082,-7932,572,-1258,564,2656,59.88,65.87746094,60.46416853,65.57776349,0,0.045493907,0.044168532,0.037763491
202,-5,1.1,4,86.72566372,3602,-10190,-112,958,1773,2349,-2324,-8078,12,-1327,643,2747,59.88,65.91,60.49,65.63124771,0,0.032539062,0.025831468,0.053484215
202,-5,1.1,4,87.61061947,3919.309289,-10089.21706,-135.3694948,616.4299587,1489.7706,1161.510129,-2406,-8492,-150,-1403,679,2895,59.88,65.91,60.49,65.7293994,0,0,0,0.09815169
202,-5,1.1,4,88.49557522,4461.108257,-9794.578839,-169.6062176,273.7710744,1213.934978,54.56003018,-2449.931715,-8753.59195,-394.2354369,-1451.69854,671.545539,2981.0244,59.8840469,65.90588171,60.49,65.79581188,0.004046899,-0.004118294,0,0.066412482
202,-5,1.1,4,89.38053097,4972.853096,-9317.651194,-200.5398316,9.726652893,1004.881867,-962.6700834,-2496,-8878,-550,-1490,653,3050,59.90081245,65.88688703,60.49,65.83,0.016765554,-0.018994681,0,0.034188122
202,-5,1.1,4,90.26548673,5200,-8670,-214,-96,922,-1881,-2594,-8534,-396,-1522,602,3117,59.92479052,65.85466557,60.45533447,65.83,0.023978065,-0.032221454,-0.034665532,0
202,-5,1.1,4,91.15044248,4994.927374,-4902.44844,2144.222222,74.59259259,1082.222222,-2843.956925,-3001.406542,-8494.63745,-512,-1580.755027,655.5,3233.294762,59.95167423,65.79798534,60.40830767,65.83537839,0.026883713,-0.056680235,-0.047026799,0.005378388
202,-5,1.1,4,92.03539823,4435.188082,1330.553558,6523.777778,391.4074074,1379.777778,-3725.25624,-3336,-8482,-628,-1635,709,3354,59.98895633,65.65193279,60.37074196,65.89393135,0.037282105,-0.146052541,-0.037565707,0.05855296
202,-5,1.1,4,92.92035398,3604,4612,8882,562,1540,-4111,-3035.397775,-9424.435771,-452.2599681,-1655.877061,708,3423.508525,60.03069001,65.52396649,60.33059816,65.94499059,0.041733671,-0.127966306,-0.040143805,0.051059245
202,-5,1.1,4,93.80530973,73.40451066,2870.300004,5252.723042,84.96296296,954.3333333,-3812.333333,-2502,-10672,-126,-1677,707,3504,60.06,65.4,60.30034958,65.97960597,0.029309994,-0.123966488,-0.030248577,0.034615381
202,-5,1.1,4,94.69026549,-5499.519967,-983.3999918,-1665.442806,-800.962963,-133.3333333,-3257.666667,-2037.878661,-11050.97401,177.4811219,-1741.524766,781.5267176,3687.644589,60.06,65.25550272,60.3,65.98,0,-0.144497278,-0.00034958,0.000394026
202,-5,1.1,4,95.57522124,-8404,-4892,-5918,-1278,-719,-2959,-1448,-11518,626,-1797,915,3976,60.06,65.14216572,60.29446289,65.98,0,-0.113337005,-0.005537109,0
202,-5,1.1,4,96.46017699,-4164.209852,-8567.40052,-6698.730088,-1041.756786,485.5,-3656.761979,-440,-14032,1716,-1805,1047,4435,60.06,65.06379385,60.24553711,65.98,0,-0.078371864,-0.048925781,0
202,-5,1.1,4,97.34513274,1330,-11544,-7012,-590,1690,-4644,260.1749309,-16494.1994,1634.398483,-1913.393178,1005.540021,4889.295648,60.06,64.98278047,60.24,65.98,0,-0.081013388,-0.005537109,0
202,-5,1.1,4,98.2300885,3515.420861,-13291.18698,501,94.7567861,1078.398108,-5124.080575,656,-17854,1496,-2015,933,5286,60.06,64.9,60.24,65.98,0,-0.082780466,0,0
202,-5,1.1,4,99.11504425,4710,-14112,8014,564,129,-5526,763.5938923,-17547.40678,1353.73603,-2007.481481,851.4473701,5562.628225,60.01898438,64.7923614,60.24,65.98,-0.041015625,-0.107638597,0,0
202,-5,1.1,4,100,5050,-7924,7064,-281,-481,-5935,832.0191684,-16800.81357,1208.534682,-1993.518519,765.112574,5793.945803,60,64.76,60.24,65.986839,-0.018984375,-0.032361403,0,0.006838999
202,-5,1.1,1,0,3732,-6782,3770,-1415,-348,-5647,856,-15874,1142,-1986,725,6067,60,64.76,60.24,66.03585182,0,0,0,0.049012823
202,-5,1.1,1,0.900900901,3916.592593,-6610.28723,297.358687,-1309.396226,-192.5513036,-5718.296296,-1499.495955,-14191.41737,1197.313167,-2130.619615,797.2086806,6556.734566,60,64.76,60.24,66.07814041,0,0,0,0.042288589
202,-5,1.1,1,1.801801802,4259.407407,-6514.032504,-2973.765101,-1087.792453,-39.8867629,-5850.703704,-5302,-12974,1340,-2355,946,6885,60,64.75959216,60.24,66.12,0,-0.000407844,0,0.04185959
202,-5,1.1,1,2.702702703,4444,-6484,-4424,-893,29,-5922,-8601.637862,-13614.90119,2009.963494,-2535.380385,1137.88946,6771.67627,60,64.72430215,60.24,66.18104452,0,-0.035290006,0,0.061044521
202,-5,1.1,1,3.603603604,4316.444444,-6519.408994,-2513.376281,-749.022362,-20.51851852,-5642.883465,-10762,-14636,2828,-2636,1445,6461,60,64.67737526,60.2315978,66.2,0,-0.046926887,-0.008402198,0.018955479
202,-5,1.1,1,4.504504505,4079.555556,-6630.373544,1138.136327,-621.7889588,-112.4814815,-5043.100264,-11142,-15348,3192,-2623,2118,5190,60,64.63324045,60.18494606,66.2,0,-0.044134817,-0.04665174,0
202,-5,1.1,1,5.405405405,3952,-6824,3410,-567,-162,-4479,-7854,-11952,3948,-2486,2887,3966,60,64.58914886,60.18,66.2,0,-0.04409159,-0.004946061,0
202,-5,1.1,1,6.306306306,4770,-7910,3756,-713,-138,-4083,-1164,-9228,6282,-2067,3454,2158,60,64.54554271,60.18,66.2,0,-0.043606149,0,0
202,-5,1.1,1,7.207207207,4952,-7542,748,-912,-207,-3333,-3852,-4859.756311,5307.266044,-1614.971485,3394.261383,648.5964013,60,64.49418914,60.18,66.2,0,-0.051353564,0,0
202,-5,1.1,1,8.108108108,4378,-7804,-1072,-804,-181,-3022,-6540,-1114,3488,-1194,3246,-204,60,64.4928901,60.18,66.2,0,-0.001299041,0,0
202,-5,1.1,1,9.009009009,4258.741152,-7790.518519,-697.1197423,-566.3118542,-168.0456418,-2644.21353,-5145.749954,698.7408255,1011.156663,-882.1077309,2538.828872,-295.6924289,60,64.59564021,60.18,66.2,0,0.102750105,0,0
202,-5,1.1,1,9.90990991,4188.81502,-7765.481481,76.427182,-269.6003715,-158.7968745,-2234.086235,-2436.388797,2027.814857,-1819.199447,-608.7625764,1351.465876,-337.6838253,59.97497942,64.79553328,60.18,66.25146321,-0.025020576,0.199893071,0,0.051463211
202,-5,1.1,1,10.81081081,4166,-7752,722,-124,-147,-1860,-622,2544,-3170,-274,554,-428,59.94,64.97,60.18,66.35527696,-0.034979424,0.174466724,0,0.103813752
202,-5,1.1,1,11.71171171,4184,-7991,1140.50971,-199.5,-121.7111265,-1547.2308,-69.44796815,1845.110103,-2265.627998,251.4886892,276.8780867,-1183.300418,59.94,64.88882324,60.18,66.39120599,0,-0.081176758,0,0.035929024
202,-5,1.1,1,12.61261261,4202,-8230,1356,-275,-104,-1266,168,718,-586,808,156,-2383,59.94,64.73074219,60.18,66.44481919,0,-0.158081055,0,0.053613199
202,-5,1.1,1,13.51351351,4038,-7654,586,-238,-117,-1014,-24,-98,1260,1220,342,-3471,59.94,64.62393066,60.18,66.55869024,0,-0.106811523,0,0.113871059
202,-5,1.1,1,14.41441441,3326.59447,-7670.23692,383.2072848,-154.8467153,-116.7647059,-868.2210965,-242,-360,1414,1587,368,-4158,59.94,64.62,60.18,66.57,0,-0.003930664,0,0.011309755
202,-5,1.1,1,15.31531532,2738,-7724,308,-78,-116,-746,-403.1831415,-473.3223306,378.360033,1957.188011,285.1749937,-4973.049098,59.94,64.62040212,60.18,66.57034174,0,0.000402125,0,0.000341738
202,-5,1.1,1,16.21621622,2830,-8612,692,-53,-106,-612,-484,-608,-1146,2383,103,-5731,59.94,64.65656389,60.18,66.60382382,0,0.036161767,0,0.033482079
202,-5,1.1,2,17.11711712,2366,-7928,1048,-75,-98,-489,-456,-1162,-1968,2988,-228,-6253,59.93756908,64.71272101,60.18,66.68341004,-0.002430921,0.056157122,0,0.079586221
202,-5,1.1,2,18.01801802,2176,-7910,1194,-126,-133,-429,-970.479162,-1585.470058,-1669.372414,3450.759796,-613.289979,-6619.873567,59.91676601,64.78198487,60.18,66.84720886,-0.020803072,0.069263852,0,0.163798823
202,-5,1.1,2,18.91891892,2030,-7584,952,-153,-121,-411,-1510,-2034,-1208,3801,-839,-6936,59.89095417,64.87099606,60.1715978,66.93655041,-0.025811837,0.08901119,-0.008402198,0.08934155
202,-5,1.1,2,19.81981982,1974,-7226,644,-179,-145,-506,-1543.472547,-2658.092425,-852.412069,4053.618918,-825.1374346,-7262.093002,59.88,64.9838601,60.14735599,67.00205016,-0.01095417,0.112864045,-0.024241807,0.06549975
202,-5,1.1,2,20.72072072,1779.036785,-7337.304499,746.1481481,-208.1336382,-161.4620213,-585.8892191,-1557.010108,-3417.276531,-493.2551724,4266.744003,-792.1164921,-7584.03986,59.88,65.2056988,60.12494606,67.05741034,0,0.221838703,-0.022409933,0.055360178
202,-5,1.1,2,21.62162162,1490.722096,-7555.720109,935.8518519,-238.3461294,-174.8129316,-661.1492549,-1570.542614,-4275.822371,-215.4706897,4439.497086,-752.7873037,-7880.966789,59.88,65.26,60.12,67.10918863,0,0.054301196,-0.004946061,0.051778287
202,-5,1.1,2,22.52252252,1310,-7708,1038,-265,-185,-753,-1604,-5198,-104,4571,-720,-8132,59.88,65.26,60.12,67.15591289,0,0,0,0.046724262
202,-5,1.1,2,23.42342342,1269.683058,-7764.872483,999.1111111,-282.8865673,-193.742624,-888.7164252,-2120.964369,-6288.117837,-577.1853933,4656.985905,-696.8855192,-8338.970319,59.90010621,65.15075849,60.0996784,67.2996863,0.020106213,-0.10924151,-0.020321596,0.14377341
202,-5,1.1,2,24.32432432,1246.217967,-7806.102908,926.8888889,-298.3317554,-200.9824231,-1055.397697,-2650,-7422,-1092,4736,-675,-8498,59.94387083,64.95850968,60.05627519,67.48177402,0.043764616,-0.192248814,-0.043403216,0.182087721
202,-5,1.1,2,25.22522523,1206,-7822,888,-324,-204,-1214,-2694,-8394,-1142,4848,-652,-8598,59.98999143,64.8587675,60.0123102,67.56950862,0.046120601,-0.099742176,-0.043964991,0.087734601
202,-5,1.1,2,26.12612613,1082,-7354,918,-403,-202,-1348,-2982,-8938,-326,5113,-541,-8783,60,64.8124421,60.009375,67.69307044,0.01000857,-0.046325401,-0.002935197,0.12356182
202,-5,1.1,2,27.02702703,1020.854749,-7602.939394,1016.421753,-424.1657834,-220.5264064,-1498.05365,-3280.77193,-8945.810674,-63.8289521,5141.741993,-498.0596331,-8930.418755,60,64.78336461,60.05742188,67.89516051,0,-0.029077491,0.048046875,0.20209007
202,-5,1.1,2,27.92792793,994,-7884,1166,-441,-261,-1676,-3560.385965,-8948.16733,103.3077462,5157.315441,-469.4187054,-9055.251294,60,64.76494947,60.03264401,68.05318014,0,-0.018415133,-0.024777869,0.15801963
202,-5,1.1,2,28.82882883,1788,-7924,1340,-472,-333,-1923,-3684,-8956,162,5162,-459,-9115,59.99794239,64.76240055,60.00067383,68.18119919,-0.002057613,-0.002548926,-0.031970178,0.128019045
202,-5,1.1,2,29.72972973,1757.563659,-8035.367817,1230.375962,-531.1311824,-394.2145898,-2075.514183,-3564,-9598,-248,5154,-481,-9123,59.95555556,64.81185185,60.04608398,68.28243036,-0.042386831,0.049451303,0.045410156,0.101231176
202,-5,1.1,2,30.63063063,1680.003091,-8208.604726,986.6692308,-613.3316379,-452.5371517,-2193.843249,-3507.44228,-10190.79857,-468.3732425,5169.5,-557.2711648,-9067.249167,59.94,64.808125,60.06,68.35235447,-0.015555556,-0.003726852,0.013916016,0.069924107
202,-5,1.1,2,31.53153153,1575.940978,-8368.039272,736.6278846,-695.8662744,-498.0911378,-2301.50069,-3452,-10656,-662,5185,-673,-8974,59.94,64.69601563,60.06,68.39824407,0,-0.112109375,0,0.045889604
202,-5,1.1,2,32.43243243,1466,-8438,608,-756,-521,-2422,-3342.101759,-10973.76484,-917.4608994,5171.117021,-808.6588473,-8906.525062,59.93487968,64.72320811,60.08735599,68.35030694,-0.005120321,0.027192483,0.027355994,-0.047937133
202,-5,1.1,2,33.33333333,1297.498454,-8278,594.1541402,-790.0241198,-525.5627998,-2561.446117,-3202,-11138,-1190,5140,-944,-8823,59.91730653,64.82419194,60.12,68.24063098,-0.01757315,0.100983834,0.032644006,-0.109675956
202,-5,1.1,2,34.23423423,1182,-8118,578,-818,-531,-2710,-3052,-11152,-1458,5080,-1042,-8662,59.89289874,64.93262341,60.12,68.14416883,-0.024407789,0.108431467,0,-0.096462152
202,-5,1.1,2,35.13513514,1932,-8734,430,-846,-583,-2871,-3000.423077,-11341.7253,-1339.216316,4927.231598,-1082.25725,-8342.476935,59.86385018,64.99939275,60.08244657,68.02997703,-0.029048563,0.066769343,-0.03755343,-0.114191805
202,-5,1.1,2,36.03603604,1814.316819,-8966.69989,394.4728747,-873.4188806,-645.1077491,-3004.543393,-2980,-11740,-1074,4683,-1099,-7882,59.82362994,65.03954008,59.94688785,67.89127092,-0.040220237,0.040147332,-0.135558722,-0.138706109
202,-5,1.1,2,36.93693694,1591.74475,-9112.673916,373.1253262,-899.8442972,-708.5451697,-3128.508651,-3049.336471,-12632.51403,-383.7836836,4346.133777,-1090.702381,-7296.142489,59.79,64.935,59.98996656,67.68862447,-0.033629939,-0.104540084,0.043078707,-0.202646445
202,-5,1.1,2,37.83783784,1460,-9336,366,-922,-749,-3274,-3258,-13510,160,3840,-1065,-6491,59.75644029,64.83078613,60.0695291,67.53525458,-0.033559706,-0.104213867,0.079562542,-0.153369889
202,-5,1.1,2,38.73873874,1448.136748,-10018.64958,434.3522013,-937.9143335,-763.084048,-3475.916995,-4678,-13798,2,2897,-850,-5189,59.71898258,64.88376465,60.10574957,67.48101974,-0.037457712,0.052978516,0.03622047,-0.054234848
202,-5,1.1,2,39.63963964,1436,-10618,542,-953,-776,-3696,-5153.989843,-14205.41183,-1142.6567,1751.685985,-956,-2822.759172,59.67722168,64.88376465,60.13425043,67.44529078,-0.041760902,0,0.028500865,-0.035728951
202,-5,1.1,2,40.54054054,1369.161313,-10740.5241,632.6477987,-976.8178571,-810.130814,-3881.635867,-5488,-14460,-2160,736,-1062,-397,59.6404541,64.83078613,60.1704709,67.40900251,-0.036767578,-0.052978516,0.03622047,-0.036288272
202,-5,1.1,2,41.44144144,1216,-10788,684,-992,-835,-4087,-5956.949807,-13556,-1298,83.02393334,-895.3443464,1221.014927,59.64,64.83,60.24039841,67.36328455,-0.000454102,-0.000786133,0.069927506,-0.045717966
202,-5,1.1,2,42.34234234,714,-10162,388,-963,-830,-4387,-6232,-12652,-436,-390,-665,2366,59.64,64.83,60.30979728,67.30567042,0,0,0.069398867,-0.05761413
202,-5,1.1,2,43.24324324,1438,-10824.81537,316.1630511,-910.2333893,-986.2925916,-4474.142773,-5726,-12978,-1312,-692,-566,2971,59.64,64.83,60.35248307,67.21054498,0,0,0.042685799,-0.095125435
202,-5,1.1,2,44.14414414,2162,-11888,290,-848,-1217,-4551,-98,-32768,-8750,-2624,-1710,1536,59.64,64.8624707,60.36,67.14308368,0,0.032470703,0.007516926,-0.067461298
202,-5,1.1,2,45.04504505,1823.695562,-12797.47791,388.4375,-789.7129518,-1345.092985,-4742.328446,-1471.037037,-27389.05722,-4402.740741,-1964.444444,-1006.37037,1828.43677,59.64,64.96842773,60.36,67.09599184,0,0.105957031,0,-0.047091838
202,-5,1.1,2,45.94594595,1030.521498,-13757.36925,605,-730.5280704,-1448.251659,-5027.68142,-4020.962963,-17304.78111,3670.740741,-739.5555556,300.3703704,2459.540206,59.60735599,64.97,60.36,67.01727213,-0.032644006,0.001572266,0,-0.078719712
202,-5,1.1,2,46.84684685,115.0866852,-14517.07597,821.5625,-675.5791539,-1551.284504,-5324.943684,-5394,-11594,8018,-80,1004,3060,59.58257813,64.97,60.36,66.93278839,-0.024777869,0,0,-0.084483745
202,-5,1.1,2,47.74774775,-590,-14826,920,-630,-1679,-5552,-4841.344,-11195.28701,6830.944,-182.544,788.928,3516.558537,59.630625,64.97,60.36,66.86274562,0.048046875,0,0,-0.070042768
202,-5,1.1,2,48.64864865,-1000,-13776,496,-597,-1862,-5686,-3523.472,-10947.73004,4000.272,-427.072,276.064,3958.714167,59.64,65.01000814,60.36,66.79689726,0.009375,0.040008142,0,-0.065848363
202,-5,1.1,2,49.54954955,1020,-13846,-26,-622,-1800,-5809,-1950.528,-10780.92957,621.728,-718.928,-336.064,4381.290528,59.64,65.1086037,60.36,66.73584996,0,0.098595563,0,-0.061047294
202,-5,1.1,3,50.45045045,4457.735103,-13462,-367.6216821,-633.529741,-1738.278689,-6345.093644,-632.656,-10624.48606,-2208.944,-963.456,-848.928,4779.111259,59.64,65.08143066,60.36,66.6802104,0,-0.02717304,0,-0.05563956
202,-5,1.1,3,51.35135135,8050,-13078,-532,-648,-1704,-6789,-80,-10408,-3396,-1066,-1064,5147,59.63742188,65.03049399,60.36148394,66.62988972,-0.002578125,-0.050936678,0.001483935,-0.050320677
202,-5,1.1,3,52.25225225,10458,-16102,2654,-716,-1835,-6177,-3718,-10112,2340,-837,-482,5466,59.589375,64.97775471,60.39773802,66.57964967,-0.048046875,-0.052739279,0.036254081,-0.050240058
202,-5,1.1,3,53.15315315,8998.439159,-15316.45496,4381.605368,-758.1927966,-2228.148353,-5424.760974,-4236.677542,-8707.462048,1982.093542,-1309.37037,-190.020202,5663.020998,59.58,64.97,60.44127714,66.58623535,-0.009375,-0.007754708,0.04353912,0.006585685
202,-5,1.1,3,54.05405405,5597.98943,-13268.24325,5653.024906,-792.279466,-2889.231241,-4512.260539,-4492.482299,-6566.842135,1156.631529,-2186.62963,19.65656566,5814.454943,59.58,64.97,60.48600546,66.63921387,0,0,0.044728322,0.052978516
202,-5,1.1,3,54.95495495,1724,-10420,6148,-841,-3623,-3292,-4782,-5460,236,-2659,100,5875,59.58,64.97,60.52228334,66.61479613,0,0,0.036277882,-0.024417734
202,-5,1.1,3,55.85585586,-2662,-4768,5992,-943,-4434,-1126,-5346.309021,-5856.396127,-1002.021902,-2423.877406,31,5662.618916,59.58,64.97,60.55814801,66.55601479,0,0,0.035864671,-0.05878134
202,-5,1.1,3,56.75675676,2615,-3101.155263,4667.676848,-999.9030969,-4414.521912,-951.8333333,-5708,-6536,-1818,-2070,-38,5245,59.58,64.97,60.60335311,66.45205452,0,0,0.045205096,-0.103960273
202,-5,1.1,3,57.65765766,7892,-1458,2538,-1071,-4349,-898,-5508.962904,-7194.368713,-744,-1825.429862,101,4640.092102,59.58,64.97519253,60.61,66.39421599,0,0.005192527,0.006646892,-0.057838533
202,-5,1.1,3,58.55855856,7300,3844,530,-1321,-2966,-1100,-5168,-7732,330,-1672,240,4067,59.58,65.01081755,60.61,66.35597288,0,0.03562502,0,-0.038243104
202,-5,1.1,4,59.45945946,3713.345956,2694.153846,-1946.638768,-992.9383232,-1750.112132,-645.3030738,-4872,-7970,140,-1637,226,3806,59.58,65.06695098,60.61,66.24215189,0,0.056133436,0,-0.113820999
202,-5,1.1,4,60.36036036,312,814,-3426,-420,-980,219,-4500,-8176,-428,-1552,237,3271,59.58,65.13097635,60.61,66.09437464,0,0.064025365,0,-0.147777243
202,-5,1.1,4,61.26126126,-41.57599769,-746.982175,-1894.812301,144.3830307,-800.4261006,1213.214123,-4565.426117,-8174.868421,-1013.164582,-1390.123048,172,2954.753304,59.58,65.22342711,60.61,65.97188133,0,0.092450763,0,-0.122493308
202,-5,1.1,4,62.16216216,-306,-2006,344,653,-646,2381,-4658,-8172,-1342,-1201,107,2672,59.58,65.31388659,60.59285365,65.76981102,0,0.090459482,-0.017146346,-0.20207031
202,-5,1.1,4,63.06306306,-798,-2658,1524,959,-295,3626,-4713.242459,-8162.987005,-1112.70894,-1032.181685,118.9259259,2314.741481,59.58,65.39421207,60.55059841,65.49227918,0,0.080325479,-0.042255241,-0.277531845
202,-5,1.1,4,63.96396396,-516,-2490,1348,1092,-75,4228,-4758.954563,-8141.623132,-614.0845473,-870.5402319,141.0740741,1929.126136,59.58,65.43951173,60.55,65.26129241,0,0.045299662,-0.000598412,-0.230986774
202,-5,1.1,4,64.86486486,358,-1872,172,1283,346,4914,-4778,-8106,-130,-739,153,1556,59.58,65.47950601,60.54555556,65.18,0,0.03999428,-0.004444444,-0.081292406
202,-5,1.1,4,65.76576577,838,-1332,-642,1457,653,5359,-4748,-7964,238,-649,105,1215,59.58,65.53224529,60.50131687,65.18,0,0.052739279,-0.044238683,0
202,-5,1.1,4,66.66666667,1353.874525,-1627,-1280.989155,1908.122533,1190.948095,5812.851756,-4356.169359,-7857.037332,186,-598.9538462,147.5,929.3497069,59.58,65.51785156,60.49,65.16376465,0,-0.01439373,-0.011316872,-0.016235352
202,-5,1.1,4,67.56756757,1648,-1922,-1608,2362,1582,6311,-3730,-7740,134,-553,190,712,59.58,65.47,60.49,65.11078613,0,-0.047851563,0,-0.052978516
202,-5,1.1,4,68.46846847,1421.534694,-1685,-1481.382796,2538.23839,1635.420409,6949.544511,-3162.665139,-7525.649955,182,-485.9246768,171.8336106,574.2358403,59.59251781,65.53471739,60.49,65.11,0.01251781,0.064717387,0,-0.000786133
202,-5,1.1,4,69.36936937,1076,-1448,-1244,2698,1655,7596,-2666,-7312,230,-415,137,482,59.61785874,65.68444438,60.49,65.11,0.025340932,0.149726989,0,0
202,-5,1.1,4,70.27027027,812.4653061,-2258.002076,-966.5447697,2996.311965,1519.1002,8133.325595,-2358,-7196,164,-354,95,432,59.63770405,65.85254321,60.49,65.11,0.019845308,0.168098833,0,0
202,-5,1.1,4,71.17117117,668,-3610,-678,3273,1327,8597,-2455,-7425.866355,62.84756996,-345.3209918,109.5,458.4653746,59.64,65.98828177,60.49,65.08999593,0.00229595,0.135738559,0,-0.020004071
202,-5,1.1,4,72.07207207,1188,-4748.674031,-454.5697608,3434.706695,1242.861852,8971.573647,-2552,-7794,-2,-339,124,507,59.64,66.12,60.49,65.04069815,0,0.131718233,0,-0.049297781
202,-5,1.1,4,72.97297297,1708,-5784,-250,3512,1156,9307,-2395.469388,-8114.978333,52.17806794,-322.4099413,121.6666667,558.3640319,59.60214126,66.28771282,60.49,65.04,-0.037858742,0.167712815,0,-0.000698148
202,-5,1.1,4,73.87387387,1000,-6544,-50,3435,987,9631,-2082.938776,-8421.378055,202.8005803,-301.9827484,117.3333333,617.1912851,59.58,66.35,60.49,65.04205078,-0.022141258,0.062287185,0,0.002050781
202,-5,1.1,4,74.77477477,1608,-7611.424458,-657,3475.37234,753.1160302,9742.328551,-1850,-8558,432,-292,115,673,59.58,66.35,60.49,65.08921875,0,0,0,0.047167969
202,-5,1.1,4,75.67567568,2216,-8802,-1264,3545,608,9836,-1766,-8252,1060,-310,125,721,59.58,66.35,60.49,65.13882181,0,0,0,0.049603062
202,-5,1.1,4,76.57657658,1886,-10026.45743,-758.3893805,3622.12766,610.6974249,10045.98884,-1574.139535,-7780.653846,1281.630666,-372.8959592,150.6306856,795.725206,59.58,66.35,60.49,65.18,0,0,0,0.041178188
202,-5,1.1,4,77.47747748,1556,-11086,-32,3670,620,10191,-1436,-7478,1370,-462,183,894,59.60313721,66.29662377,60.48272,65.2046154,0.023137207,-0.053376232,-0.00728,0.024615398
202,-5,1.1,4,78.37837838,1670,-11738,328,3570,962,10026,-1450.513813,-7578.3125,1252.1875,-540.5671836,205.6261433,1010.269869,59.65667725,66.15882952,60.46536,65.22649232,0.053540039,-0.137794252,-0.01736,0.021876925
202,-5,1.1,4,79.27927928,1360.962963,-11746.55802,-289.5555556,3477.276589,1645.505645,9839.155493,-1487.203501,-7799,993,-620.1073882,224.4176829,1147.700472,59.69703369,66.01347349,60.44464,65.24406155,0.040356445,-0.14535603,-0.02072,0.017569226
202,-5,1.1,4,80.18018018,787.037037,-11750.83457,-1436.444444,3384.940438,2578.420312,9634.012579,-1535.791439,-8019.6875,733.8125,-705.3438987,248.5003811,1310.030839,59.7,65.91025163,60.42728,65.25575385,0.002966309,-0.103221854,-0.01736,0.011692301
202,-5,1.1,4,81.08108108,478,-11752,-2054,3273,3442,9402,-1586,-8120,616,-801,287,1501,59.7,65.83,60.42,65.26,0,-0.080251632,-0.00728,0.00424615
202,-5,1.1,4,81.98198198,918.9497656,-11558,-1437.060204,3123.39913,4207.639797,9091.99898,-1644,-7738,912,-920,404,1773,59.73785874,65.77631127,60.42,65.20952168,0.037858742,-0.053688729,0,-0.050478323
202,-5,1.1,4,82.88288288,1834,-11364,-376,2926,4744,8804,-1448,-7690,574,-968,374,1907,59.76,65.76,60.42153877,65.1816025,0.022141258,-0.016311271,0.001538775,-0.027919173
202,-5,1.1,4,83.78378378,3226,-12074,556,2634,4923,8641,-1305.225171,-7538.183391,896.9545455,-1042.049343,444.9858818,2092.86296,59.76,65.76,60.44287503,65.20745844,0,0,0.021336251,0.025855933
202,-5,1.1,4,84.68468468,4121.870813,-13180.71516,505,2207.052597,4795.399223,8440.158948,-1234,-7420,1386,-1118,580,2294,59.79796875,65.85175781,60.47276002,65.25770792,0.03796875,0.091757813,0.029884999,0.050249481
202,-5,1.1,4,85.58558559,4688,-13894,454,1814,4528,8161,-1666,-7864,1676,-1171,739,2474,59.88,66.05,60.4898219,65.3230029,0.08203125,0.198242187,0.017061877,0.065294981
202,-5,1.1,4,86.48648649,4892.933252,-13228.41895,770.9453034,1583.293077,4141.867438,7673.70715,-1548.329397,-9336.308706,1640.934541,-1290.785754,825.0734054,2585.902991,59.88,65.91397701,60.44847168,65.45214735,0,-0.136022991,-0.041350221,0.129144455
202,-5,1.1,4,87.38738739,5120,-12060,1204,1418,3571,6912,-1380,-10494,1552,-1434,864,2694,59.88,65.80918249,60.42,65.55648299,0,-0.10479452,-0.02847168,0.104335638
202,-5,1.1,4,88.28828829,6062,-10970,1382,1309,2663,5540,-1275.85885,-10009.7037,970.0422983,-1558.524793,850.7777778,2851.398984,59.88,65.77457106,60.42,65.59365286,0,-0.034611432,0,0.03716987
202,-5,1.1,4,89.18918919,6589.455511,-10313.39069,818.2525622,1149.928005,1668.666197,3867.830505,-1188.596091,-9110.296296,2.132260255,-1675.273995,826.2222222,3036.107082,59.89898438,65.73638775,60.42,65.6891543,0.018984375,-0.03818331,0,0.095501441
202,-5,1.1,4,90.09009009,6922,-10006,98,936,799,2118,-1152,-8626,-508,-1756,813,3215,59.94,65.69,60.42,65.83,0.041015625,-0.046387748,0,0.140845697
202,-5,1.1,4,90.99099099,7086,-10176,-124,614,253,497,-1434.628798,-8918,-212,-1790.912292,836.6827133,3374.1866,59.94,65.58546882,60.46416853,65.92883721,0,-0.104531181,0.044168532,0.098837212
202,-5,1.1,4,91.89189189,7186,-12630,-364,76,-343,-1397,-1930,-9210,84,-1830,892,3531,59.94382324,65.54,60.49,65.99719464,0.003823242,-0.045468819,0.025831468,0.068357429
202,-5,1.1,4,92.79279279,7032.567372,-11391.25926,512.8148148,-204.0393696,-523.2005776,-2789.978547,-2390,-8972,-286,-1962,1014,3693,59.98703613,65.54,60.49,66.04423866,0.043212891,0,0,0.047044021
202,-5,1.1,4,93.69369369,6567.134743,-9090.740741,2141.185185,-407.4641292,-624.4860584,-3929.878162,-2018.125209,-9700.660253,-312.043131,-2103.894644,1103.130214,3849.205851,60.03270996,65.62948242,60.46785156,66.05,0.045673828,0.089482422,-0.022148438,0.005761338
202,-5,1.1,4,94.59459459,5782,-7852,3018,-486,-815,-4402,-1406,-10884,-320,-2212,1166,4036,60.06,65.75800587,60.42,66.05,0.027290039,0.128523451,-0.047851563,0
202,-5,1.1,4,95.4954955,-3618.888293,-8124.388057,138,-482.0793976,-2026.794006,-3690,-828.4440735,-11683.85289,166.1961188,-2262.460686,1198.233554,4331.196814,60.06,65.59693819,60.42,66.09785156,0,-0.161067678,0,0.047851563
202,-5,1.1,4,96.3963964,-12546,-8738,-2742,-472,-3093,-2978,-259.2220367,-12451.68868,1111.058904,-2297.888567,1220.944402,4715.994337,60.06,65.43888658,60.41487089,66.12,0,-0.158051617,-0.005129112,0.022148438
202,-5,1.1,4,97.2972973,-9841.62976,-10436.87687,-1226.375,-312.4151053,-2582.84375,-3494.5625,-2,-13468,1744,-2328,1254,5121,60.06,65.3556934,60.37612218,66.12,0,-0.083193173,-0.038748705,0
202,-5,1.1,4,98.1981982,-3891.512693,-13287.22389,2108,22.65879528,-1460.5,-4631,-25.52690583,-15762.51165,1937.029366,-2352.22844,1348.712614,5566.480064,60.06,65.25883721,60.33784922,66.09785156,0,-0.096856191,-0.038272967,-0.022148438
202,-5,1.1,4,99.0990991,2059.86072,-15966.95896,5442.375,354.6532982,-338.15625,-5767.4375,-58,-17440,2020,-2380,1421,5967,60.06059841,65.17450624,60.3,66.05,0.000598412,-0.084330975,-0.037849216,-0.047851563
202,-5,1.1,4,100,4768,-17154,6958,505,172,-6284,-70.85373968,-17163.14677,1953.62963,-2457.716253,1394.555556,6278.322349,60.10285365,65.13543188,60.26478441,66.05,0.042255241,-0.039074362,-0.035215593,0
202,-5,1.1,1,0,4772.027059,-16619.4519,6637.50282,452.4314869,150.2857143,-6233.931354,-80.22367269,-16516.07132,1830.37037,-2562.469238,1345.444444,6540.050063,60.11770405,65.0827987,60.22725898,66.04354004,0.014850397,-0.052633179,-0.037525426,-0.006459961
202,-5,1.1,1,0.900900901,4774.462093,-15240.88047,5804.424365,316.8600583,94.28571429,-6095.8256,-96,-15774,1764,-2615,1319,6650,60.09785874,64.98102789,60.18387467,65.98645996,-0.019845308,-0.101770812,-0.043384312,-0.057080078
202,-5,1.1,1,1.801801802,4775.912047,-13355.89504,4651.384266,131.4868805,17.71428571,-5887.833019,-303.0251793,-15031.19034,2026.772437,-2605.001146,1537.814815,6501.965842,60.07251781,64.8774252,60.18,65.99012998,-0.025340932,-0.103602687,-0.003874669,0.003670017
202,-5,1.1,1,2.702702703,4776.983869,-11302.10496,3371.00215,-70.48688047,-65.71428571,-5628.10389,-786.2455628,-14190.46747,2719.360688,-2573.092555,2084.851852,6087.201805,60.06,64.83,60.18,66.03058094,-0.01251781,-0.047425198,0,0.040450962
202,-5,1.1,1,3.603603604,4778.284505,-9417.119534,2155.897648,-255.8600583,-142.2857143,-5334.788491,-1405.707194,-13239.90921,3698.171162,-2516.406187,2796,5449.715546,60.06,64.87785156,60.18,66.0844707,0,0.047851563,0,0.053889757
202,-5,1.1,1,4.504504505,4780.420899,-8038.548105,1198.690388,-391.4314869,-198.2857143,-5026.037101,-2021.456115,-12167.59334,4819.610266,-2432.073999,3507.148148,4633.514722,60.06,64.8890625,60.18553711,66.13500382,0,0.011210937,0.005537109,0.050533118
202,-5,1.1,1,5.405405405,4784,-7504,692,-444,-220,-4720,-2493.538369,-10961.59767,5940.084409,-2317.227951,4054.185185,3682.606987,60.06,64.83300781,60.23446289,66.18851686,0,-0.056054687,0.048925781,0.053513046
202,-5,1.1,1,6.306306306,4812.608404,-7505.030166,485.0008733,-422.956094,-212.2962963,-4370.988449,-2682,-9610,6916,-2169,4273,2641,60.03264401,64.83,60.23304616,66.21812593,-0.027355994,-0.003007813,-0.001416727,0.029609067
202,-5,1.1,1,7.207207207,4877.187646,-7508.807642,302.392229,-370.2150562,-193.037037,-3942.802856,570,-7730,7770,-1484,4111,933,60,64.8296438,60.20863678,66.23613887,-0.032644006,-0.000356198,-0.024409383,0.018012944
202,-5,1.1,1,8.108108108,4959.377077,-7516.362895,150.0809432,-301.3629074,-168,-3467.827217,557.5542171,-5423.97732,6758.496,-888.3499281,3510.246924,253.6129595,60,64.79552005,60.18522915,66.25444867,0,-0.034123753,-0.02340763,0.018309799
202,-5,1.1,2,9.009009009,5040.816045,-7528.726395,33.97389225,-231.985668,-142.962963,-2978.44553,519.3826513,-2732.144485,4346.448,-316.0261031,2419.611592,-202.4747616,60,64.71614492,60.18,66.28833097,0,-0.079375127,-0.005229151,0.033882301
202,-5,1.1,2,9.90990991,5103.143903,-7546.928607,-40.02204756,-177.6693587,-123.7037037,-2507.041792,454.2339769,-170.5229897,1467.552,208.872686,1195.752798,-547.8689625,60,64.56461836,60.18,66.34473385,0,-0.151526562,0,0.056402879
202,-5,1.1,2,10.81081081,5128,-7572,-66,-154,-116,-2086,360.8568684,1744.86567,-944.496,662.2476501,195.3293356,-895.1754422,60,64.62737126,60.18,66.35,0,0.062752899,0,0.005266149
202,-5,1.1,2,11.71171171,4632,-8162,636,-152,-142,-1728,238,2498,-1956,1020,-225,-1357,60,64.85345944,60.18,66.35,0,0.226088179,0,0
202,-5,1.1,2,12.61261261,4570,-7638,694,-204,-108,-1454,-202,2300,-498,1261,-232,-2002,60,65.18303897,60.13898438,66.38759766,0,0.329579528,-0.041015625,0.037597656
202,-5,1.1,2,13.51351351,4072,-8000,-42,-263,-154,-1213,-344,1698,698,1748,-104,-3043,59.99648891,65.23052963,60.129375,66.43748792,-0.003511093,0.047490661,-0.009609375,0.049890268
202,-5,1.1,2,14.41441441,2957.819551,-7866,148.8342521,-214,-144.5,-1003.656563,-182,630,8,2085,-133,-3784,59.97526969,65.04797025,60.17742188,66.48122535,-0.021219214,-0.182559378,0.048046875,0.043737421
202,-5,1.1,2,15.31531532,2160,-7732,472,-165,-135,-843,-750,118,-1146,2570,-429,-4591,59.95038673,64.81881625,60.18,66.52275495,-0.024882964,-0.229153995,0.002578125,0.041529602
202,-5,1.1,2,16.21621622,2197.333333,-7781.259259,802.7391074,-193.4031897,-136.7106265,-737.1777874,-512,-596,-1454,2916,-522,-5112,59.94,64.68381461,60.18,66.56172007,-0.010386729,-0.135001646,0,0.038965122
202,-5,1.1,2,17.11711712,2266.666667,-7872.740741,1139.702887,-254.2508239,-141.5323641,-654.4987978,-802,-1368,-1574,3412,-890,-5705,59.94,64.63151599,60.18,66.60660664,0,-0.052298618,0,0.044886566
202,-5,1.1,2,18.01801802,2304,-7922,1294,-311,-149,-602,-1080.934175,-1888.979831,-1223,3769.927727,-1137.085687,-6099.45236,59.94,64.64186847,60.1715978,66.66874918,0,0.010352484,-0.008402198,0.062142541
202,-5,1.1,2,18.91891892,2296,-7508,912,-350,-171,-577,-1270,-2396,-872,4030,-1257,-6427,59.94,64.79863251,60.12494606,66.76179606,0,0.156764036,-0.04665174,0.093046888
202,-5,1.1,2,19.81981982,1730,-8380,472,-378,-217,-533,-1324.382721,-3057.748146,-879.8195097,4212.190414,-1235.656229,-6745.046755,59.91264401,64.97056691,60.12,66.85543418,-0.027355994,0.171934404,-0.004946061,0.09363812
202,-5,1.1,2,20.72072072,1335.72978,-8081,140.9667221,-397.356961,-212.3996746,-623.7744932,-1355.398684,-3819.093739,-903.1945749,4355.831119,-1185.645792,-7042.130623,59.88,65.1199413,60.11991895,66.9490889,-0.032644006,0.149374385,-8.11E-05,0.093654719
202,-5,1.1,2,21.62162162,1142,-7782,-26,-413,-200,-781,-1412,-4654,-942,4442,-1128,-7315,59.88,65.21563664,60.11126161,67.03707357,0,0.095695343,-0.008657343,0.087984667
202,-5,1.1,2,22.52252252,1264,-8160,392,-426,-153,-922,-1667.262166,-5584.801311,-1305.619718,4480.66933,-1043.386742,-7574.51169,59.88,65.29148858,60.09204699,67.12313058,0,0.075851939,-0.019214619,0.086057012
202,-5,1.1,2,23.42342342,1534.643204,-7813,587,-481.8591205,-184.4817744,-1060.511717,-2002,-6634,-1646,4508,-986,-7784,59.88,65.32880563,60.06757466,67.21204993,0,0.037317047,-0.024472323,0.088919352
202,-5,1.1,2,24.32432432,1728,-7466,782,-528,-236,-1205,-2217.12369,-8145.950606,-1568.533947,4533.109057,-1044,-7907.100933,59.88312956,65.31878575,60.03004007,67.30621862,0.003129557,-0.010019874,-0.037534589,0.094168683
202,-5,1.1,2,25.22522523,1362,-7882,1200,-493,-275,-1369,-2420,-9108,-1360,4558,-1102,-8026,59.89448344,65.27810102,60,67.41159375,0.011353878,-0.040684731,-0.030040075,0.105375138
202,-5,1.1,2,26.12612613,1446,-8284,1036,-518,-336,-1445,-2650,-8934,-574,4589,-1047,-8215,59.9117556,65.2162091,60,67.54045748,0.017272166,-0.061891928,0,0.128863721
202,-5,1.1,2,27.02702703,1492.541146,-8248,1199,-540.8049451,-365.8830392,-1566.302725,-2758,-8832,-206,4483,-976,-8312,59.93242763,65.14213431,60,67.69683684,0.020672033,-0.074074787,0,0.156379366
202,-5,1.1,2,27.92792793,1520,-8212,1362,-569,-382,-1702,-2726,-9088,-176,4255,-858,-8474,59.95398112,65.064901,60,67.88898804,0.021553481,-0.077233305,0,0.192151202
202,-5,1.1,2,28.82882883,1529.269976,-8283.037037,1358.065788,-625.4003673,-386.7243415,-1824.409619,-2570,-9384,-502,4104,-803,-8564,59.97389762,64.99353352,60,68.12743213,0.019916507,-0.071367485,0,0.238444087
202,-5,1.1,2,29.72972973,1534.412523,-8414.962963,1345.242687,-703.134068,-389.2438751,-1942.162865,-2490,-10118,-1272,3958,-916,-8615,59.98965874,64.93705619,60,68.3330588,0.015761114,-0.056477325,0,0.205626668
202,-5,1.1,2,30.63063063,1548,-8486,1322,-773,-395,-2046,-2492.294118,-10224.62944,-1869.458763,3934.084337,-1196.986754,-8641.921642,59.99874604,64.90449337,60,68.4362108,0.0090873,-0.032562825,0,0.103151998
202,-5,1.1,2,31.53153153,2268,-8418,1144,-823,-441,-2129,-2498,-10260,-2174,3926,-1558,-8654,59.99001096,64.91623535,60.009375,68.50714858,-0.008735081,0.011741983,0.009375,0.070937785
202,-5,1.1,2,32.43243243,2822.249497,-7882.359886,483.7600816,-917.4686192,-521.7112293,-2197.499917,-2519.248447,-10209.375,-1987.027206,3931,-1934.801589,-8592.886119,59.9438868,64.96921387,60.05742188,68.55798667,-0.046124151,0.052978516,0.048046875,0.050838086
202,-5,1.1,2,33.33333333,3104,-7402,-140,-982,-582,-2266,-2567.172328,-10098,-1553.239216,3942,-2349.37919,-8433.446318,59.90284842,64.97,60.04226229,68.50720097,-0.041038388,0.000786133,-0.015159583,-0.0507857
202,-5,1.1,2,34.23423423,2697.559919,-7655.131191,-298.3187251,-969.5,-592.8894231,-2347.875403,-2638.510046,-9986.625,-1063.331618,3953,-2684.267196,-8211.533357,59.85632145,64.97,59.99184072,68.33416839,-0.046526971,0,-0.050421571,-0.173032574
202,-5,1.1,2,35.13513514,2044,-8094,-362,-957,-597,-2436,-2730,-9936,-708,3958,-2822,-7963,59.81185963,64.97,59.94742967,68.11387469,-0.044461816,0,-0.044411053,-0.2202937
202,-5,1.1,2,36.03603604,1457.440081,-8541.098254,5,-968.641791,-585.5,-2518.339554,-2909.872524,-10145.28538,-529.4787179,3919.889821,-2816.764581,-7635.753843,59.77731342,64.97,59.95987683,67.88239585,-0.034546211,0,0.012447166,-0.231478841
202,-5,1.1,2,36.93693694,1118,-8896,372,-996,-574,-2620,-3223.203576,-10619.90409,-389.9430576,3818.890753,-2800.862495,-7194.658332,59.76053326,64.97,60.04766992,67.64051396,-0.016780155,0,0.087793088,-0.241881895
202,-5,1.1,2,37.83783784,1179,-9011.921705,-61,-1084.858209,-581.208589,-2802.169884,-3632,-11130,-210,3675,-2774,-6701,59.76,64.865,60.09512056,67.63,-0.000533265,-0.105,0.047450639,-0.010513957
202,-5,1.1,2,38.73873874,1240,-9140,-494,-1158,-599,-3030,-4347.584215,-11722.24992,179.652774,3372.551474,-2524.514067,-6189.935036,59.75967933,64.76069815,60.13013394,67.63,-0.00032067,-0.104301852,0.035013375,0
202,-5,1.1,2,39.63963964,1052.182794,-9812.033779,-337.7245431,-1113.5,-673.291411,-3243.041165,-5154,-12152,456,2888,-2131,-5506,59.74972778,64.78000407,60.16245013,67.63,-0.009951552,0.019305923,0.03231619,0
202,-5,1.1,2,40.54054054,588,-10722,-102,-1069,-737,-3497,-5798.919123,-12215.36361,382.8367514,2223.550902,-1785.914367,-4263.016004,59.72974891,64.80999593,60.19873702,67.5869843,-0.01997887,0.029991858,0.036286896,-0.0430157
202,-5,1.1,2,41.44144144,-658,-11344,36,-1141,-708,-3886,-6216,-12296,152,1330,-1492,-2618,59.70504229,64.82930185,60.23633522,67.41103403,-0.024706618,0.019305923,0.037598193,-0.17595027
202,-5,1.1,2,42.34234234,-472,-11298,-36,-1150,-612,-4267,-6326,-23980,-2096,92,-1318,-757,59.66498328,64.83,60.27853228,67.32701137,-0.040059013,0.000698148,0.042197063,-0.084022664
202,-5,1.1,2,43.24324324,-495,-11930.68015,113.160249,-1157.840909,-624.2722096,-4748.063413,-7047.59356,-23286.80585,194.2962963,112.4559857,-1685.62963,1378.936065,59.64229595,64.83,60.32403609,67.26564793,-0.022687328,0,0.04550381,-0.061363432
202,-5,1.1,2,44.14414414,-518,-13396,528,-1162,-662,-5149,-8207.241224,-21253.61171,4447.703704,164.467527,-2368.37037,3461.24581,59.68748219,64.83,60.35526673,67.20570055,0.045186241,0,0.031230639,-0.059947385
202,-5,1.1,2,45.04504505,608,-16538,2344,-1070,-960,-5330,-8814,-17950,6738,234,-2736,4398,59.68999143,64.83,60.36,67.13072091,0.00250924,0,0.004733271,-0.074979638
202,-5,1.1,2,45.94594595,147.5555556,-16479.09321,2298.994024,-1054.212522,-1170.504713,-5630.127895,-4578,-5820,4950,356,644,2993,59.64387083,64.83,60.36,67.04119438,-0.046120601,0,0,-0.089526535
202,-5,1.1,2,46.84684685,-707.5555556,-16308.63087,2171.321382,-1046.335496,-1347.64645,-5989.53927,-581.0821842,-5152.325804,-707.282683,-827.7585048,614.9534765,3497.190003,59.60010621,64.75383065,60.36,66.89649363,-0.043764616,-0.076169347,0,-0.144700749
202,-5,1.1,2,47.74774775,-1168,-16036,1972,-1036,-1538,-6252,2228,-4952,-6244,-2016,534,4368,59.58229595,64.69928745,60.36,66.77796756,-0.017810264,-0.054543204,0,-0.118526071
202,-5,1.1,2,48.64864865,-124.9861429,-14425.22349,956.1317225,-1021.401283,-1766.594979,-6353.865607,3506.174884,-6442.734572,-8289.544109,-2022.741495,-414.9534765,5276.905573,59.62748219,64.89445977,60.36,66.73873772,0.045186241,0.195172324,0,-0.039229836
202,-5,1.1,3,49.54954955,2276,-12808,56,-994,-2005,-6481,4062,-8758,-9174,-2025,-1312,5939,59.64,65.00247888,60.36,66.66590344,0.01251781,0.108019108,0,-0.072834276
202,-5,1.1,3,50.45045045,7322,-12604,278,-833,-2236,-7154,-948,-10248,-4164,-1366,-1166,6093,59.64,65.0396166,60.36,66.57401754,0,0.037137718,0,-0.091885904
202,-5,1.1,3,51.35135135,9226.584155,-14412,2047.331655,-847.0253304,-2495.880596,-6820.392978,-6476,-7500,3470,-770,-496,6007,59.64,65.01143066,60.36,66.68,0,-0.028185935,0,0.105982461
202,-5,1.1,3,52.25225225,10000,-16220,4150,-878,-2851,-6169,-11997.7673,-8027,2792.937869,-1482,-724.5,6619.5,59.64,64.96049399,60.36229595,66.78825991,0,-0.050936678,0.00229595,0.108259914
202,-5,1.1,3,53.15315315,8282,-14532,4902,-935,-3567,-5341,-15068,-8554,1514,-2194,-953,7232,59.64,64.90775471,60.40748219,66.74586638,0,-0.052739279,0.045186241,-0.042393538
202,-5,1.1,3,54.05405405,3330.064617,-11166.55926,5370.334038,-936.0049746,-4255.712616,-3817.363777,-9546.987538,-7758,-315.2432889,-2193.498469,-386,6488.482311,59.62285365,64.92000407,60.42,66.69847596,-0.017146346,0.012249363,0.01251781,-0.047390416
202,-5,1.1,3,54.95495495,-446,-6288,5592,-937,-4984,-1955,-3782,-6962,-1616,-2192,181,5540,59.58059841,64.96930185,60.42,66.646945,-0.042255241,0.049297781,0,-0.051530965
202,-5,1.1,3,55.85585586,3000,628,3538,-977,-5858,-159,-3405.012462,-7411,-1729.69458,-1916.745702,123,5228.934374,59.58,64.93191533,60.45808467,66.52000115,-0.000598412,-0.037386526,0.038084673,-0.126943849
202,-5,1.1,3,56.75675676,7486,-238,2030,-617,-4619,-1480,-3272,-7860,-1770,-1541,65,4999,59.58,64.90205078,60.49,66.40893004,0,-0.029864545,0.031915327,-0.111071101
202,-5,1.1,3,57.65765766,6534.835089,-504.0918781,1046.428283,-141.0412981,-3519.755448,-1305.871718,-4100,-6904,-790,-1385,91,4767,59.58,64.94921875,60.49,66.37415731,0,0.047167969,0,-0.034772732
202,-5,1.1,4,58.55855856,4328.226904,-636.1671502,188.6584735,414.2619569,-2475.603493,-839.4079139,-4814,-7266,470,-1291,132,4265,59.56101563,64.99660522,60.50000857,66.29572585,-0.018984375,0.047386466,0.01000857,-0.078431459
202,-5,1.1,4,59.45945946,1836.505267,-775.6588471,-417.9405724,964.4342335,-1553.149791,-164.4901531,-4932,-7766,130,-1248,267,3832,59.52,65.04,60.54612917,66.13389318,-0.041015625,0.043394784,0.046120601,-0.16183267
202,-5,1.1,4,60.36036036,30,-1064,-648,1425,-819,635,-5112.913006,-8095.680471,-465.7499038,-1086.150795,232,3439.120322,59.52,65.07381607,60.58989379,66.0124752,0,0.033816071,0.043764616,-0.121417987
202,-5,1.1,4,61.26126126,-876,-2258,1630,1759,-318,1990,-5310.900947,-8354.951347,-1151.763841,-844.1705805,167,3066.976703,59.52,65.12744607,60.61,65.87870862,0,0.053630001,0.020106213,-0.13376658
202,-5,1.1,4,62.16216216,-1112,-2202,2112,1873,-41,2628,-5404,-8460,-1480,-698,132,2703,59.52,65.28588531,60.61,65.68507134,0,0.158439239,0,-0.193637278
202,-5,1.1,4,63.06306306,-102,-1932,616,1982,494,3380,-5164.992072,-7828,-500,-670.7669966,163,2326.761644,59.52,65.36019668,60.61,65.46700297,0,0.074311371,0,-0.218068366
202,-5,1.1,4,63.96396396,466,-1386,-696,2096,841,3877,-4716,-7196,480,-651,194,1995,59.52,65.39589549,60.61,65.27568922,0,0.035698808,0,-0.191313751
202,-5,1.1,4,64.86486486,963.7574934,-1262.099617,-1307.877383,2351.352172,1275.34792,4493.264509,-4159.932303,-7475.921977,425.6085766,-619.0735658,174,1752.723641,59.52,65.43442733,60.57735599,65.10984616,0,0.03853184,-0.032644006,-0.165843065
202,-5,1.1,4,65.76576577,1399.323191,-1188.383142,-1737.716469,2712.780656,1713.896182,5180.503163,-3638,-7948,294,-599,154,1545,59.52494606,65.50137424,60.55,65.04601563,0.004946061,0.066946906,-0.027355994,-0.063830532
202,-5,1.1,4,66.66666667,1586,-1164,-1900,3039,1914,5859,-3359.068208,-8437.078023,-199.6085766,-598.4883079,182.6351832,1334.999078,59.5715978,65.66387501,60.55,65.158125,0.04665174,0.162500774,0,0.112109375
202,-5,1.1,4,67.56756757,1258,-1880.749574,-1403.803163,3308.473493,1851.244898,6518.083825,-3116,-8734,-616,-598,219,1165,59.58,65.6671382,60.53101563,65.13570313,0.008402198,0.003263196,-0.018984375,-0.022421875
202,-5,1.1,4,68.46846847,930,-3036,-862,3495,1714,7132,-2754.087259,-8394.37037,-120.2962963,-496.2143569,229.6423323,1055.581431,59.58,65.61079788,60.49,65.04,0,-0.056340322,-0.041015625,-0.095703125
202,-5,1.1,4,69.36936937,957.2235294,-3967.234655,-789.1968366,3579.406412,1401.704733,7654.658266,-2375.265852,-7763.62963,800.2962963,-308.162734,236.4229308,969.5098018,59.58,65.6686469,60.49,65.04,0,0.057849014,0,0
202,-5,1.1,4,70.27027027,1034,-4686,-762,3616,1130,8123,-2200,-7424,1296,-207,248,892,59.58494606,65.81817143,60.49,65.04,0.004946061,0.149524538,0,0
202,-5,1.1,4,71.17117117,1394,-5018,-1016,3600,1088,8540,-2816,-7872,650,-321,284,821,59.6315978,66.11619914,60.49,65.04,0.04665174,0.298027707,0,0
202,-5,1.1,4,72.07207207,1414.982443,-5321.210482,-1036.465555,3621.5,910.660734,9015.338102,-2782,-8004,382,-304,320,819,59.64,66.2714908,60.49,65.04,0.008402198,0.155291656,0,0
202,-5,1.1,4,72.97297297,1434,-5694,-1050,3643,640,9462,-2803.361607,-7847.401568,323.0377358,-325.3333333,295.2083333,879.1723684,59.64,66.35,60.49,65.04,0,0.078509201,0,0
202,-5,1.1,4,73.87387387,1855.537037,-6358.354211,-1084.358696,3639.5,295.9658502,9825.362977,-2848,-7554,302,-368,269,958,59.64,66.40390865,60.49,65.08152832,0,0.053908649,0,0.04152832
202,-5,1.1,4,74.77477477,2258,-7278,-1108,3636,62,10103,-2938.638393,-7179.563875,558.9297125,-429.9874214,266.7916667,985.9357397,59.64,66.41729901,60.49,65.10422959,0,0.013390362,0,0.022701275
202,-5,1.1,4,75.67567568,2172.86212,-8714.556759,-1043.888295,3658.814815,35.22423679,10309.18594,-3006,-6856,850,-496,266,1009,59.64,66.37627023,60.49,65.04980256,0,-0.041028785,0,-0.05442703
202,-5,1.1,4,76.57657658,1945.502018,-10403.30371,-913.1099228,3701.185185,19.27878506,10475.59297,-2966.613861,-6699.034557,906.0702875,-546.4792453,268.7066116,1033.330916,59.64,66.21642929,60.49,65.05418914,0,-0.159840936,0,0.004386578
202,-5,1.1,4,77.47747748,1618,-11366,-808,3724,14,10544,-2902,-6628,928,-580,276,1069,59.64,65.98,60.49,65.10554271,0,-0.236429291,0,0.051353564
202,-5,1.1,4,78.37837838,580.1134482,-11568.01448,-746.6256684,3628.089776,558.7066141,10411.60542,-2864.087682,-6706.156051,554.78477,-591.1339623,330.2084602,1201.096759,59.66930999,66.06833706,60.49,65.14592685,0.029309994,0.088337065,0,0.040384139
202,-5,1.1,4,79.27927928,-276,-11688,-716,3484,1512,10163,-2804,-6812,178,-601,387,1378,59.71212701,66.11377992,60.49,65.20168466,0.042817016,0.045442856,0,0.055757815
202,-5,1.1,4,80.18018018,-250.8881988,-11759.74527,-1229,3397.987148,2454.689431,9873.890546,-2428,-6854,174,-621,396,1508,59.754138,66.02815127,60.49,65.29955397,0.042010991,-0.085628649,0,0.097869305
202,-5,1.1,4,81.08108108,-172,-11854,-1742,3323,3310,9567,-2396.535601,-7327.714912,228.4023638,-693.2584077,392.0707547,1673.877235,59.76,65.8343268,60.49,65.36581188,0.005861999,-0.19382447,0,0.066257913
202,-5,1.1,4,81.98198198,568,-12352,-1404,3253,3833,9319,-2366,-7824,336,-777,382,1802,59.76,65.61,60.49,65.4,0,-0.224326801,0,0.034188122
202,-5,1.1,4,82.88288288,1566.680558,-12873.45435,-499.6486716,2992.448289,4254.74863,8952.657575,-2082,-7896,478,-819,351,1844,59.7863795,65.67921393,60.49,65.35583147,0.026379497,0.069213927,0,-0.044168532
202,-5,1.1,4,83.78378378,2496,-13418,178,2573,4508,8482,-2244,-8282,684,-876,422,2065,59.83880457,65.82557257,60.49,65.33577041,0.052425077,0.146358647,0,-0.020061062
202,-5,1.1,4,84.68468468,3054,-14000,-26,2039,4560,7860,-2214,-8155,658.8976744,-950.5706388,475.6706424,2195.631698,59.87720511,65.95715124,60.49,65.39019744,0.038400534,0.131578665,0,0.05442703
202,-5,1.1,4,85.58558559,3876.15004,-13569.56647,506.4905417,1777.664929,4326.300407,7198.144233,-2184,-8028,600,-1029,504,2303,59.88,66.01973436,60.46785156,65.4,0.002794891,0.062583121,-0.022148438,0.009802565
202,-5,1.1,4,86.48648649,4754,-12804,1262,1579,3887,6420,-2254,-8063.960265,458.0340266,-1093.396783,505.4964886,2409.799921,59.88,66.05,60.42,65.4,0,0.030265639,-0.047851562,0
