locomotion_mode,terrain_info,walk_speed_info,gait_phase,gait_percentage,left_accel_x,left_accel_y,left_accel_z,left_gyro_x,left_gyro_y,left_gyro_z,right_accel_x,right_accel_y,right_accel_z,right_gyro_x,right_gyro_y,right_gyro_z,left_hip_angle,left_knee_angle,right_hip_angle,right_knee_angle,left_hip_angle_vel,left_knee_angle_vel,right_hip_angle_vel,right_knee_angle_vel
201,10,0.7,4,98.15005139,289.9788012,-9398.488589,-1140.218299,1487.110502,517.7288634,3728.748362,-2002.973617,-7821,610.1544885,-157.0279159,62.33662614,73.27317544,59.94661382,65.35170464,59.7,65.67879707,0.006613819,0.106248735,0,-0.011202931
201,10,0.7,4,98.25282631,490,-9474,-1176,1322,909,3484,-2272,-7450,322,-219,106,95,59.98999833,65.38851846,59.7,65.61659475,0.043384509,0.036813824,0,-0.06220232
201,10,0.7,4,98.35560123,842,-9420,-1084,1124,1351,3102,-2243.380323,-7469.883929,293.9649008,-250.101968,133.3363412,116.237704,60.01484409,65.42947481,59.7,65.64253906,0.024845765,0.040956348,0,0.025944314
201,10,0.7,4,98.45837616,1234,-9368,-904,991,1588,2870,-2166.014196,-7524.857143,274.691023,-275.8961938,158.8267477,135.4610982,60.03074259,65.47213869,59.7,65.69,0.015898492,0.042663875,0,0.047460938
201,10,0.7,4,98.56115108,1784,-9168,-656,818,1822,2498,-2052.64097,-7607.901786,263.5716336,-293.4923227,177.6537804,154.9539433,60.04700837,65.51476402,59.7,65.69,0.016265783,0.042625328,0,0
201,10,0.7,4,98.663926,2148.541293,-9035.706089,-477.9422143,683.9410194,1811.405527,2198.660527,-1916,-7712,260,-300,185,177,60.07242605,65.55730357,59.7,65.67879707,0.025417682,0.042539558,0,-0.011202931
201,10,0.7,4,98.76670092,2444.011838,-8929.193941,-333.5266627,565.5175183,1779.477721,1926.225749,-1594.992902,-8002.071429,376.9347826,-290,162.9438202,201.0736106,60.11108167,65.59966328,59.7,65.61659475,0.038655623,0.042359708,0,-0.06220232
201,10,0.7,4,98.86947585,2740,-8832,-274,438,1726,1612,-1346,-8236,524,-280,133,233,60.13775103,65.62913408,59.7,65.64253906,0.026669357,0.029470795,0,0.025944314
201,10,0.7,4,98.97225077,3060,-8742,-314,286,1495,1190,-1872,-7986,566,-307,121,293,60.16129335,65.65065831,59.7,65.69,0.023542322,0.02152424,0,0.047460937
201,10,0.7,4,99.07502569,3196.027055,-8513.233934,-368.374596,184.3220764,1289.515566,845.4101972,-2414,-7466,324,-401,209,317,60.1769887,65.67286833,59.7,65.69,0.015695348,0.022210015,0,0
201,10,0.7,4,99.17780062,3286.38404,-8149.306129,-438.0219193,102.0920236,1092.934358,533.1761615,-1918,-7878,439,-429.2621807,245.8333449,318.5518395,60.18,65.7081979,59.7,65.69,0.0030113,0.035329568,0,0
201,10,0.7,4,99.28057554,3400,-7746,-530,28,874,203,-1422,-8290,554,-454,263,320,60.18,65.75769806,59.7,65.69,0,0.049500162,0,0
201,10,0.7,4,99.38335046,3590,-7298,-688,-39,602,-175,-1560.128134,-8130,550,-521.4992657,265.3790076,377.7307692,60.20502058,65.76,59.7,65.69,0.025020576,0.002301941,0,0
201,10,0.7,4,99.48612539,3648,-6944,-782,-69,413,-411,-1744,-7970,546,-577,268,434,60.24,65.76,59.7,65.69,0.034979424,0,0,0
201,10,0.7,4,99.58890031,3750,-6346,-820,-107,173,-706,-1812,-8210,662,-585,296,417,60.24,65.76,59.7,65.69,0,0,0,0
201,10,0.7,4,99.69167523,4221.621648,-12395,1301,-32.10625287,392,-1041.083972,-1606,-8070,554,-626,340,449,60.24,65.76,59.709375,65.69,0,0,0.009375,0
201,10,0.7,4,99.79445015,4616,-18444,3422,78,611,-1255,-1737,-7681.576159,308.5191661,-686.3750351,359.9908145,542.0585974,60.24,65.76,59.75742188,65.69,0,0,0.048046875,0
201,10,0.7,4,99.89722508,3771.797917,-17244.73572,3265.906982,152.3370421,388.4599499,-1282.372782,-1868,-7388,132,-745,380,631,60.24,65.74531526,59.76,65.69,0,-0.014684742,0.002578125,0
201,10,0.7,4,100,1768.040278,-14567.69366,2832.925074,216.6129655,-31.4134336,-1295.620813,-1674.110154,-7484.46875,252.5043478,-779.1082476,438.1830986,652.6773696,60.24,65.69808157,59.76,65.69,0,-0.047233693,0,0
201,10,0.7,1,0,-602,-11794,2176,244,-277,-1321,-1462,-7724,470,-815,482,677,60.24,65.64023344,59.76,65.69,0,-0.057848126,0,0
201,10,0.7,1,0.680272109,-4337.189323,-8698.588984,-13.66842159,-92.81188336,-305.1424436,-1412.056833,-1440,-8378,690,-882,442,801,60.24,65.58918252,59.76,65.69283607,0,-0.051050915,0,0.002836074
201,10,0.7,1,1.360544218,-6928,-6784,-2964,-505,-316,-1612,-1470,-7846,776,-1019,457,869,60.24,65.54204726,59.76,65.71710632,0,-0.047135264,0,0.024270251
201,10,0.7,1,2.040816327,-2304,-7836,-5044,-607,728,-2288,-1463,-8006.892872,920.5974576,-1116.062786,465.0448419,968.159242,60.24,65.54,59.76,65.74722014,0,-0.002047259,0,0.03011381
201,10,0.7,1,2.721088435,1612.578774,-8156.810455,-2518,-422.5,400.4650757,-2418.572519,-1456,-8422,1016,-1193,476,1079,60.24,65.5396438,59.75984734,65.7598219,0,-0.000356198,-0.000152656,0.012601766
201,10,0.7,1,3.401360544,3670,-8280,8,-238,13,-2464,-2103,-10716.10713,832.3873027,-1250.921096,615.4377163,1177.589415,60.24,65.50552005,59.74522288,65.74276002,0,-0.034123753,-0.014624466,-0.017061877
201,10,0.7,1,4.081632653,2529.394906,-8163.888492,-25.09632764,-245.5,-88.96507567,-2296.5,-2750,-12756,476,-1307,746,1285,60.24,65.44575005,59.71960716,65.71287503,0,-0.059769998,-0.025615713,-0.029884999
201,10,0.7,1,4.761904762,832,-7970,-134,-253,-131,-2129,-2005.407407,-12197.55556,-72.68853805,-1389.402755,689.7407407,1418.074293,60.24,65.40307755,59.70131895,65.69153877,0,-0.042672502,-0.018288215,-0.021336251
201,10,0.7,1,5.442176871,-118,-7814,-1788,-171,62,-2176,-622.5925926,-11160.44444,-729.6776024,-1480.345099,585.2592593,1572.282327,60.2644043,65.4,59.7244043,65.71847168,0.024404297,-0.003077549,0.023085347,0.026932905
201,10,0.7,1,6.12244898,1293,-7999,-1693.930279,27.23618923,86.88516676,-2049.879599,122,-10602,-1048,-1541,529,1745,60.3,65.39946252,59.76,65.75921387,0.035595703,-0.000537477,0.035595703,0.040742188
201,10,0.7,1,6.802721088,2704,-8184,-1464,226,95,-1816,-430,-11286,-538,-1564,534,1953,60.3,65.35626446,59.76,65.70623535,0,-0.04319806,0,-0.052978516
201,10,0.7,1,7.482993197,2401,-8181.428161,-554.0697211,325.532951,60.5,-1545.290504,-1300,-12302,-16,-1590,577,2104,60.28748219,65.30740195,59.74748219,65.69,-0.01251781,-0.048862511,-0.01251781,-0.016235352
201,10,0.7,1,8.163265306,2098,-8174,220,382,26,-1279,-1293.207135,-12393.42988,181.8589246,-1639.177451,586.5751834,2230.150158,60.24229595,65.26566555,59.70229595,65.69,-0.045186241,-0.041736402,-0.045186241,0
201,10,0.7,1,8.843537415,2571,-8002.571839,92,403.9652406,45.5,-1104.400242,-1270,-12422,362,-1684,590,2357,60.24,65.24048905,59.7,65.725,-0.00229595,-0.025176495,-0.00229595,0.035
201,10,0.7,1,9.523809524,3044,-7836,-36,413,65,-943,-602,-12052,724,-1701,565,2511,60.24,65.21804611,59.7,65.76,0,-0.022442942,0,0.035
201,10,0.7,1,10.20408163,2783.580645,-7863.133224,632,400.5,56.3974359,-752.1170749,-1210,-12594,960,-1737,572,2718,60.24,65.1993687,59.7,65.76,0,-0.018677417,0,0
201,10,0.7,1,10.88435374,2446,-7930,1300,373,43,-554,-1144,-12838,1290,-1810,604,2772,60.24,65.18617494,59.7,65.7674375,0,-0.013193756,0,0.0074375
201,10,0.7,1,11.56462585,2322.718324,-8206.866776,1294.397912,321.548951,35.56858352,-354.2684807,-1226.343165,-12265.19212,950,-1831.713215,646.71563,2874.143122,60.24,65.18018298,59.7,65.81984635,0,-0.005991959,0,0.052408854
201,10,0.7,1,12.24489796,2238,-8444,1278,253,26,-164,-1434,-11398,610,-1840,707,2998,60.27,65.18,59.7,65.87029224,0.03,-0.00018298,0,0.050445883
201,10,0.7,2,12.92517007,2174,-8206,1184,185,-2,-1,-2163.045965,-10752.80788,798,-1831.928962,812.8561505,3113.686836,60.29770405,65.18,59.7,65.91971752,0.02770405,0,0,0.049425286
201,10,0.7,2,13.60544218,2030,-8146,1098,147,10,82,-3280,-10402,986,-1812,965,3227,60.25251781,65.18,59.7,65.9700885,-0.045186241,0,0,0.050370976
201,10,0.7,2,14.28571429,1626.430592,-8150.722892,1030.382514,108.9116203,-7.27247191,162.0350467,-4671.705311,-11192,939,-1751.946263,1196.654869,3358.249428,60.25251781,65.18,59.7,65.98,1.42E-14,0,0,0.009911501
201,10,0.7,2,14.96598639,1304,-8160,922,83,-34,206,-5592,-11982,892,-1657,1432,3435,60.29770405,65.18,59.7,65.98,0.045186241,0,0,0
201,10,0.7,2,15.6462585,1284,-8172,296,76,-51,206,-5640,-11582,1022,-1545,1576,3185,60.2776824,65.14808467,59.67264401,66.04383065,-0.020021649,-0.031915327,-0.027355994,0.063830653
201,10,0.7,2,16.32653061,1104,-9292,404,245,138,175,-5252,-10390,996,-1417,1865,3110,60.23745546,65.11020081,59.64,66.12,-0.040226937,-0.037883868,-0.032644006,0.076169347
201,10,0.7,2,17.00680272,1144.39867,-8950.106381,374.962963,235.1481481,107.9259259,184.9769946,-3742.02885,-9143.168908,1234,-1148.948365,2011.249257,2841.013437,60.21162909,65.12912781,59.64,66.12,-0.025826373,0.018927002,0,0
201,10,0.7,2,17.68707483,1231.019563,-8300.657207,321.037037,216.8518519,52.07407407,206.2873226,-2040,-7732,1472,-874,2076,2476,60.19012231,65.16087219,59.64,66.12,-0.021506784,0.031744385,0,0
201,10,0.7,2,18.36734694,1312,-7908,292,207,22,226,-1304,-5876,1426,-731,1921,2179,60.18009559,65.17979919,59.64,66.12,-0.010026717,0.018927002,0,0
201,10,0.7,2,19.04761905,1361.372967,-7844.963655,310.5,224,22.8164557,237.8011401,-1066,-3660,-846,-530,610,1899,60.18,65.11,59.64,66.12,-9.56E-05,-0.069799194,0,0
201,10,0.7,2,19.72789116,1422,-7820,356,241,25,252,-222,-2600,-1194,-436,172,1948,60.18,65.04,59.64,66.12,0,-0.07,0,0
201,10,0.7,2,20.40816327,1564,-7954,476,222,33,284,-393,-2204.232682,-966.1783095,-169.9046172,98.81897847,1685.340223,60.18,65.04,59.64,66.12,0,0,0,0
201,10,0.7,2,21.08843537,1397.406897,-7952,711.4271186,210.7511275,13,327.8666121,-564,-2044,-408,212,74,1165,60.18,65.05623535,59.64,66.12,0,0.016235352,0,0
201,10,0.7,2,21.76870748,1168,-7950,874,201,-7,355,644,-2636,1044,627,82,475,60.18,65.10921387,59.64,66.12,0,0.052978516,0,0
201,10,0.7,2,22.44897959,1076.03167,-8036,719,189.068531,-4,351.7808057,216.8300455,-3403.501771,861.9186603,942.1969509,240.5992372,-129.3097899,60.18,65.08451755,59.64,66.15336195,0,-0.024696313,0,0.033361955
201,10,0.7,2,23.1292517,984,-8122,564,178,-1,342,-336,-3888,528,1235,472,-683,60.17742188,65.02656491,59.63742188,66.20898416,-0.002578125,-0.05795264,-0.002578125,0.055622205
201,10,0.7,2,23.80952381,806,-8118,630,170,-2,271,-567.8300455,-3909.414333,116.9607645,1568.623473,634.6136364,-1192.755494,60.129375,64.92986712,59.589375,66.25254233,-0.048046875,-0.096697796,-0.048046875,0.04355817
201,10,0.7,2,24.48979592,563.606383,-8196,828.8461538,151.5732079,-13.50099492,235.7872552,-674,-3930,-210,1877,742,-1676,60.12,64.86738377,59.58,66.29458719,-0.009375,-0.062483352,-0.009375,0.042044864
201,10,0.7,2,25.17006803,414,-8274,982,126,-29,203,-643.7881356,-4134.162234,-319.3339702,2112.314665,784.2727273,-2191.730659,60.12,64.83132884,59.58,66.33875226,0,-0.036054928,0,0.044165064
201,10,0.7,2,25.85034014,481.1228474,-8250.195731,958.3583118,99.59065261,-36.15094664,144.8182021,-582,-4472,-376,2319,802,-2611,60.12,64.83,59.58,66.41376194,0,-0.001328839,0,0.075009686
201,10,0.7,2,26.53061224,631.8012504,-8203.280351,913.8277347,69.47981268,-41.72723484,74.19439054,-492,-4814,-396,2512,629,-2832,60.11936556,64.83074018,59.58257813,66.50831652,-0.000634444,0.000740184,0.002578125,0.094554576
201,10,0.7,2,27.21088435,790,-8170,888,33,-51,18,-617,-5362.814231,-574.278932,2673.584309,458.3800059,-3112.051419,60.10196844,64.85103681,59.630625,66.60289048,-0.017397112,0.02029663,0.048046875,0.094573965
201,10,0.7,2,27.89115646,936,-8160,886,-19,-79,-14,-742,-5966,-768,2825,254,-3423,60.07555556,64.88185185,59.64,66.69107451,-0.026412889,0.030815037,0.009375,0.08818403
201,10,0.7,2,28.57142857,468,-8228,1034,-31,-100,11,-500,-6458,-810,2978,-76,-3747,60.06016195,64.89981106,59.64,66.77954595,-0.015393605,0.017959206,0,0.08847144
201,10,0.7,2,29.25170068,286,-8236,862,-65,-70,-121,-557.2,-6810.279064,-892.6296296,3061.895974,-346.3505902,-4008.728254,60.06,64.79959495,59.67264401,66.93642367,-0.00016195,-0.100216106,0.032644006,0.156877712
201,10,0.7,2,29.93197279,394,-8206,550,-77,-63,-272,-698.4,-7108.2141,-991.8703704,3123.846122,-586.6138375,-4240.562684,60.05845924,64.67770405,59.7,67.01787979,-0.001540764,-0.121890902,0.027355994,0.081456122
201,10,0.7,2,30.6122449,660.3705104,-8170.52983,708,-91.96350227,-63.5,-341.574339,-878,-7422,-1040,3150,-798,-4452,60.02158004,64.62819255,59.7,66.96798306,-0.0368792,-0.0495115,0,-0.049896724
201,10,0.7,2,31.29251701,856,-8132,866,-109,-64,-396,-1162.023636,-7781.308617,-1031.111111,3152.909732,-1008.887629,-4650.324311,59.9774876,64.68774902,59.7098877,66.9130525,-0.044092433,0.059556473,0.009887695,-0.054930566
201,10,0.7,2,31.97278912,801.625,-8090.231521,841.3125,-129.412477,-63.375,-460.3758172,-1490,-8160,-1010,3154,-1139,-4819,59.94046069,64.95508301,59.75603027,66.87052054,-0.037026908,0.267333984,0.046142578,-0.042531956
201,10,0.7,2,32.65306122,682,-8045.657474,787,-152.5372812,-62,-526.3635398,-1732.472798,-8575.943017,-962.4870484,3131.783066,-1165.772712,-4946.569874,59.94,65.07458984,59.80205566,66.87,-0.000460695,0.119506836,0.046025391,-0.000520542
201,10,0.7,2,33.33333333,562.375,-8002.75469,732.6875,-174.1434447,-60.625,-588.9194925,-1978,-8960,-878,3084,-1179,-5059,59.94,65.09707254,59.82,66.87,0,0.022482693,0.017944336,0
201,10,0.7,2,34.01360544,508,-7966,708,-190,-60,-643,-2290,-9236,-716,3003,-1185,-5170,59.94,64.95605896,59.82,66.87,0,-0.141013574,0,0
201,10,0.7,2,34.69387755,1122,-7938,806,-199,-70,-685,-2257.752372,-9348.885015,-843.6240876,2938.075663,-1170,-5189.378684,59.93132924,64.87341713,59.83391602,66.87,-0.008670755,-0.082641835,0.013916016,0
201,10,0.7,2,35.37414966,1150,-8056,814,-206,-94,-697,-2208,-9450,-988,2874,-1155,-5196,59.8849654,64.83414639,59.87932617,66.87,-0.04636384,-0.039270735,0.045410156,0
201,10,0.7,2,36.05442177,822,-8400,650,-214,-121,-688,-2174.606894,-9670.741956,-1013.793737,2802.754094,-1177.284875,-5151.647388,59.80498006,64.79297259,59.88,66.87,-0.079985346,-0.041173806,0.000673828,0
201,10,0.7,2,36.73469388,912,-7900,726,-220,-110,-726,-2144.553447,-9938.623019,-1029.251707,2725.308307,-1236.903084,-5041.072554,59.76,64.75049399,59.88,66.87,-0.044980059,-0.0424786,0,0
201,10,0.7,2,37.41496599,1098.92934,-8189,638,-221.5859264,-115.3498767,-726.5673082,-2118,-10078,-1042,2633,-1323,-4898,59.76,64.69775471,59.88,66.87,0,-0.052739279,0,0
201,10,0.7,2,38.0952381,1262,-8478,550,-223,-125,-727,-2096,-10088,-1054,2505,-1517,-4670,59.76,64.69,59.89898438,66.88594861,0,-0.007754708,0.018984375,0.015948607
201,10,0.7,2,38.7755102,1310.12467,-8317.259259,572.4893122,-225.8704409,-133.8487789,-728.7893197,-2230.35623,-10141.49567,-1045.947761,2362.137152,-1628.542071,-4438.039384,59.76,64.69,59.94,66.94,0,0,0.041015625,0.054051393
201,10,0.7,2,39.45578231,1339.764917,-8018.740741,624.7564021,-230.5890666,-143.8527845,-732.4647081,-2398,-10230,-1028,2216,-1710,-4199,59.76,64.48595336,59.94,66.99534791,0,-0.204046639,0,0.05534791
201,10,0.7,2,40.13605442,1380,-7858,684,-238,-156,-738,-2444,-10334,-994,2077,-1772,-3945,59.76,64.34296074,59.94257813,67.0165625,0,-0.142992624,0.002578125,0.02121459
201,10,0.7,2,40.81632653,1476.61878,-7964.814815,764.5028571,-278.5726496,-177.3176955,-760.8107417,-2605.089667,-10344.63193,-824.9716157,1878.506917,-1781.73262,-3581.486282,59.76,64.42414726,59.990625,66.9525,0,0.081186521,0.048046875,-0.0640625
201,10,0.7,2,41.49659864,1598.198279,-8163.185185,856.2514286,-344.4529915,-202.7144033,-797.3171355,-2854,-10348,-682,1656,-1785,-3173,59.76,64.54740741,60,66.94,0,0.12326015,0.009375,-0.0125
201,10,0.7,2,42.17687075,1658,-8270,900,-379,-215,-819,-3165.677713,-10099.94532,-682.9,1449.027864,-1709.133858,-2789.891901,59.76,64.61924423,60,66.94,0,0.071836826,0,0
201,10,0.7,2,42.85714286,1198,-7892,576,-353,-207,-822,-3468,-9646,-686,1230,-1550,-2387,59.7244043,64.49541504,60.0355957,66.98746094,-0.035595703,-0.123829194,0.035595703,0.047460937
201,10,0.7,2,43.53741497,1312,-8144,838,-384,-227,-823,-3656,-9168,-796,972,-1300,-1924,59.7,64.41,60.06,67.02,-0.024404297,-0.085415039,0.024404297,0.032539063
201,10,0.7,2,44.21768707,1516,-7974,928,-400,-241,-873,-3690,-8916,-918,795,-1149,-1621,59.7,64.41,60.06,67.02,0,0,0,0
201,10,0.7,2,44.89795918,1509.385435,-7988,796.0769231,-444.061916,-283.3511294,-890.1785714,-3791.749601,-8678.498307,-1145.897269,570.295563,-1133.702387,-1200.521185,59.68285365,64.39581086,60.07368245,67.03563204,-0.017146346,-0.014189142,0.01368245,0.015632042
201,10,0.7,2,45.57823129,1488,-8002,648,-493,-316,-905,-3952.456948,-8440.476956,-1431.875239,320.2931283,-1125.462305,-715.0291604,59.64059841,64.34445729,60.1171623,67.08647549,-0.042255241,-0.051353564,0.043479851,0.050843448
201,10,0.7,2,46.2585034,1224,-7826,628,-519,-316,-933,-4104,-8156,-1640,89,-1123,-278,59.64,64.2911612,60.13883849,67.12025968,-0.000598412,-0.05329609,0.021676189,0.033784189
201,10,0.7,2,46.93877551,1186.42591,-7941.569536,601.8918919,-554.5804348,-315.5,-995.2290174,-4220,-7754,-1732,-102,-1180,58,59.64553711,64.27,60.15497123,67.15112337,0.005537109,-0.021161203,0.016132739,0.03086369
201,10,0.7,2,47.61904762,1174,-8078,586,-597,-315,-1081,-4613.446746,-8389,-1727.607784,-320.9192409,-1294.413387,529.9754708,59.69446289,64.27,60.17308921,67.16883571,0.048925781,0,0.018117985,0.017712346
201,10,0.7,2,48.29931973,1231,-8101.819585,666.625,-643.7360146,-347.4660194,-1173.815211,-5228,-9024,-1714,-542,-1406,1070,59.67983539,64.28666743,60.20660705,67.17,-0.0146275,0.016667431,0.033517832,0.001164285
201,10,0.7,2,48.97959184,1288,-8128,826,-699,-403,-1285,-5984,-7294,-1600,-740,-1457,1623,59.64053498,64.33569878,60.23959433,67.17,-0.039300412,0.049031346,0.03298728,0
201,10,0.7,2,49.65986395,882,-8276,1036,-772,-451,-1431,-6943.430776,-7122.235471,-1444.534756,-920.0639946,-1360.240741,2165.611345,59.6755957,64.37923062,60.24,67.0949363,0.035060724,0.043531841,0.000405674,-0.075063699
201,10,0.7,2,50.34013605,976.5433855,-8641.29741,1062.901331,-874.1794717,-709.1153293,-1530.879322,-7522,-7068,-1186,-1017,-1182,2496,59.7,64.42440469,60.24336017,67.00258915,0.024404297,0.045174075,0.003360172,-0.092347147
201,10,0.7,2,51.02040816,1150,-9450,1090,-964,-930,-1617,-7284.89508,-7173.615215,-273.4007271,-862.9249178,-941.2592593,2538.599737,59.7,64.47325174,60.28308938,66.9572803,0,0.048847048,0.039729206,-0.04530885
201,10,0.7,3,51.70068027,1334,-13282,1312,-1007,-788,-1703,-6784,-7512,1020,-559,-782,2572,59.7,64.48,60.32750971,66.91379044,0,0.006748259,0.044420334,-0.043489862
201,10,0.7,3,52.38095238,136,-11824,546,-1079.127575,-537.0668524,-1944.960944,-5980,-11316,2136,-161,-837,2644,59.7,64.48,60.36,66.87,0,0,0.032490288,-0.043790442
201,10,0.7,3,53.06122449,-1062,-10366,-220,-1152,-369,-2170,-1723.689855,-9824.082774,3504.301088,-442.8362904,108,2081,59.7,64.48,60.36,66.8190291,0,0,0,-0.0509709
201,10,0.7,3,53.7414966,-84,-10667.47046,-6,-1208.495671,-454,-2222.881853,4122,-7868,4320,-1020,1053,1518,59.69770405,64.48149493,60.36,66.77358567,-0.00229595,0.001494935,0,-0.045443427
201,10,0.7,3,54.42176871,894,-11054,208,-1238,-539,-2275,8204,-7190,-4066,-1864,281,2144,59.67785874,64.49616481,60.36,66.73641433,-0.019845308,0.014669871,0,-0.037171346
201,10,0.7,3,55.10204082,881.6232877,-11153.60644,51,-1217.5,-535.6073903,-2476.09538,3182.698614,-6697.473667,-5886.285164,-1629.790049,210.1921244,2954.217486,59.65251781,64.52119181,60.36,66.69076542,-0.025340932,0.025027008,0,-0.045648906
201,10,0.7,3,55.78231293,842,-11280,-106,-1197,-526,-2700,-3968,-6452,-6534,-1143,172,3446,59.64,64.55,60.36,66.64,-0.01251781,0.028808186,0,-0.05076542
201,10,0.7,3,56.46258503,400,-12314,594,-1234,-480,-2799,-7402,-10178,-752,-399,129,2855,59.64,64.58872295,60.36,66.59911629,0,0.038722949,0,-0.040883705
201,10,0.7,3,57.14285714,427.6534765,-12429.45737,933.869213,-1214.224138,-524.6722002,-2989.094902,-2496,-6526,2994,-853,502,2458,59.64,64.63486452,60.36553711,66.55366438,0,0.046141573,0.005537109,-0.045451911
201,10,0.7,3,57.82312925,506,-12538,1164,-1172,-597,-3214,-2499,-7045.432099,753.5009188,-915.4499629,407.4897579,2268.754984,59.64,64.68547955,60.41446289,66.49531678,0,0.050615031,0.048925781,-0.058347603
201,10,0.7,3,58.50340136,882,-13202,1332,-1102,-650,-3406,-2502,-7684,-1780,-936,246,2148,59.64,64.66416853,60.42,66.49,0,-0.021311021,0.005537109,-0.005316781
201,10,0.7,3,59.18367347,277,-13092.64348,1039.761905,-1117,-695.8676276,-3541.805088,-1930,-7846.19948,-2260.500919,-624.6488073,92.87548567,2072.980456,59.64,64.62,60.42,66.49,0,-0.044168532,0,0
201,10,0.7,3,59.86394558,-328,-12818,686,-1132,-750,-3668,-1358,-7984,-2448,-190,-35,2006,59.64,64.70833706,60.46416853,66.41669694,0,0.088337065,0.044168532,-0.073303059
201,10,0.7,3,60.54421769,141.7496684,-11547.35652,611.7161067,-1124.5,-874.0382166,-3811.647048,-1902,-8224,-1064,4,-98,1914,59.64,64.76,60.49,66.33239065,0,0.051662935,0.025831468,-0.084306286
201,10,0.7,3,61.2244898,982,-10442,534,-1117,-964,-3968,-2909.645957,-8158.697681,207.8807732,38.9804141,-44.73370429,1698.560457,59.64,64.76,60.49,66.28349887,0,0,0,-0.048891784
201,10,0.7,3,61.9047619,1674.075937,-10458.56318,54.52198853,-1164.668024,-890,-4146.495937,-3594,-8006,1034,51,15,1417,59.64,64.77884999,60.49,66.23321911,0,0.01884999,0,-0.050279762
201,10,0.7,4,62.58503401,2688,-10516,-360,-1272,-816,-4336,-3454,-7668,1240,-20,23,1147,59.64,64.83,60.49,66.2,0,0.05115001,0,-0.033219108
201,10,0.7,4,63.26530612,5450,-13032,704,-1482,-821,-4526,-3162.020668,-7769.271167,778.7641509,-10.2,45.72727273,928.5950705,59.64,64.8708711,60.52785874,66.24416853,0,0.040871096,0.037858742,0.044168532
201,10,0.7,4,63.94557823,5365.917341,-12860.50474,1449.179079,-1609.90458,-929.4751386,-4337.074641,-2764,-7912,208,8,63,760,59.64,64.91486452,60.55,66.27,0,0.043993426,0.022141258,0.025831468
201,10,0.7,4,64.62585034,5134,-12424,1816,-1670,-1116,-4020,-2300,-7978,58,28,46,657,59.64,64.96547955,60.55,66.27,0,0.050615031,0,0
201,10,0.7,4,65.30612245,4158,-11116,1778,-1641,-1298,-3761,-2541.310662,-7985.569204,475,26.32352941,-1.778776978,571.5334325,59.64,64.97,60.55,66.28911324,0,0.004520447,0,0.019113238
201,10,0.7,4,65.98639456,3012.739614,-9615.163412,1824,-1544.808219,-1627.082166,-3283.441553,-2802,-7988,892,22,-38,478,59.64,64.97,60.55,66.35,0,0,0,0.060886762
201,10,0.7,4,66.66666667,2340,-7932,1870,-1462,-1849,-2736,-2832.689338,-7986.447674,856.5612009,-1.823529412,6.5,322.9445007,59.64,64.93582031,60.55,66.45433589,0,-0.034179688,0,0.10433589
201,10,0.7,4,67.34693878,2381,-5492.791773,516,-1454.752828,-1500.539988,-2181.062928,-2844,-7982,768,-23,51,174,59.64,64.8711836,60.55,66.49,0,-0.06463671,0,0.03566411
201,10,0.7,4,68.02721088,2422,-3868,-838,-1446,-756,-1862,-2688.375469,-7897.552326,370.4387991,-19.56359102,35.93,92.3587584,59.64,64.77736444,60.55,66.49,0,-0.093819164,0,0
201,10,0.7,4,68.70748299,1732,-3778,-382,-859,481,-2064,-2448,-7816,26,-10,7,24,59.64,64.68126112,60.55,66.52336077,0,-0.096103323,0,0.033360768
201,10,0.7,4,69.3877551,1010,-4370,-60,-460,977,-1840,-2296,-8294,114,32,-28,-49,59.64,64.62,60.55,66.57,0,-0.061261116,0,0.046639232
201,10,0.7,4,70.06802721,280,-3522,802,-278,1218,-1018,-2122.763341,-8384.592016,346.6874635,81.15289256,-42.14473684,-151.8533435,59.64,64.65449999,60.55,66.57,0,0.03449999,0,0
201,10,0.7,4,70.74829932,110.9549356,-3587,1134.27696,-27.81269973,1136.375408,-303.2507334,-2022,-8416,544,110,-48,-233,59.64,64.71883019,60.54756908,66.57114172,0,0.064330197,-0.002430921,0.001141721
201,10,0.7,4,71.42857143,50,-3652,1270,233,992,346,-2532,-7810,574,110,-41,-258,59.64,64.8093524,60.52676601,66.58350768,0,0.090522214,-0.020803072,0.012365959
201,10,0.7,4,72.10884354,183.6503113,-3649.407407,1128.99177,448.7012746,842.4656944,946.4354134,-2366.374873,-7903.851852,479.6296296,120.6296296,-34.79565773,-334.7089477,59.64,64.86001127,60.50095417,66.60829012,0,0.05065887,-0.025811837,0.02478244
201,10,0.7,4,72.78911565,476.4117337,-3644.592593,816.872428,648.6704867,680.8213657,1509.129977,-2019.416413,-8078.148148,304.3703704,140.3703704,-29.34227331,-440.5766961,59.64,64.9072208,60.49,66.64581645,0,0.04720953,-0.01095417,0.037526335
201,10,0.7,4,73.46938776,766,-3642,500,852,561,2043,-1716,-8172,210,151,-27,-494,59.64,65.03293925,60.49,66.80972127,0,0.125718447,0,0.163904814
201,10,0.7,4,74.14965986,990.9198694,-3715.558813,225.7002116,1074.721976,491.6554631,2571.576539,-1534.960604,-8095.777778,319.8431416,150.2222222,-27.77777778,-474.7230917,59.64,65.14876081,60.48019744,66.87,0,0.115821561,-0.009802565,0.060278732
201,10,0.7,4,74.82993197,1212.790673,-3910.006515,-53.62426824,1300.97254,438.7101854,3075.422064,-1380.601383,-7954.222222,538.1307277,148.7777778,-29.22222222,-428.11285,59.64,65.23424644,60.42577041,66.87,0,0.085485628,-0.05442703,0
201,10,0.7,4,75.51020408,1454,-4186,-314,1502,392,3499,-1216,-7878,698,148,-30,-371,59.64,65.31878717,60.42,66.89847168,0,0.084540727,-0.005770405,0.02847168
201,10,0.7,4,76.19047619,1738,-4772,-540,1661,350,3809,-995.3753477,-7997,767.759799,148.5,-28,-293.6891016,59.64,65.41077568,60.41940159,66.93954502,0,0.091988516,-0.000598412,0.041073337
201,10,0.7,4,76.8707483,1638,-4996,-608,1888,212,4263,-820,-8116,800,149,-26,-200,59.64,65.54687917,60.37714635,66.90103766,0,0.13610349,-0.042255241,-0.038507361
201,10,0.7,4,77.55102041,1700,-5358,-614,2030,68,4540,-756,-7842,702,114,-36,-107,59.64,65.63714487,60.36,66.85359514,0,0.090265702,-0.017146346,-0.047442513
201,10,0.7,4,78.23129252,1744.146489,-5651.205876,-601,2158.075715,-157.4449412,4889.096998,-791.5100671,-7926.929752,752.0969388,88.66753718,-18.44379391,-24.47404004,59.64,65.68637668,60.36,66.80901733,0,0.049231806,0,-0.044577812
201,10,0.7,4,78.91156463,1766,-5948,-588,2274,-386,5266,-860,-8046,846,67,11,56,59.64,65.69,60.36,66.69704921,0,0.003623322,0,-0.111968116
201,10,0.7,4,79.59183673,1524,-6326,-856,2373,-538,5633,-944,-8100,952,47,35,141,59.64059841,65.69069815,60.35960297,66.56329981,0.000598412,0.000698148,-0.00039703,-0.133749408
201,10,0.7,4,80.27210884,1454,-6608,-1114,2430,-535,5852,-1340,-7664,854,-21,50,236,59.68285365,65.73999593,60.32628409,66.51862741,0.042255241,0.049297781,-0.033318879,-0.044672396
201,10,0.7,4,80.95238095,1372,-6954,-1322,2495,-398,6098,-1374.339905,-7683.759985,876.8148148,-44.51372549,45.33333333,316.0273443,59.7,65.7490625,60.28244068,66.46226564,0.017146346,0.009066571,-0.043843415,-0.056361771
201,10,0.7,4,81.63265306,1412.08547,-7263.858039,-1258.222222,2489.825871,-211.5444664,6273.700371,-1392.614397,-7735.075525,919.1851852,-58.69411765,36.66666667,388.2578891,59.7,65.69300781,60.24178243,66.37091026,0,-0.056054688,-0.04065825,-0.091355384
201,10,0.7,4,82.31292517,1498.837607,-7560.832344,-1139.777778,2475.985075,10.30636236,6419.53078,-1398,-7806,942,-81,32,453,59.72735599,65.69,60.24,66.22135872,0.027355994,-0.003007813,-0.001782427,-0.149551534
201,10,0.7,4,82.99319728,1582,-7888,-1076,2456,245,6542,-1254,-7944,800,-138,80,508,59.76,65.69082455,60.23960297,66.12,0.032644006,0.000824549,-0.00039703,-0.101358722
201,10,0.7,4,83.67346939,1634.590095,-8292.645285,-1091.555556,2403.932731,520.5472656,6660.037572,-1090.769042,-8103.098985,811,-159.0546083,82.31203008,555.3710005,59.76,65.76404887,60.20628409,66.12,0,0.073224316,-0.033318879,0
201,10,0.7,4,84.3537415,1684.103267,-8737.763885,-1120.444444,2315.787518,811.4739446,6763.658554,-996,-8196,822,-177,83,610,59.76664689,65.88283202,60.16244068,66.11224529,0.006646892,0.118783155,-0.043843415,-0.007754708
201,10,0.7,4,85.03401361,1762,-9140,-1136,2227,1015,6816,-1101.529412,-8070.358974,817.1896552,-215.6892223,78.5,707.7527981,59.81185199,66.03304859,60.12178243,66.05950601,0.045205096,0.150216572,-0.04065825,-0.052739279
201,10,0.7,4,85.71428571,1970,-9458,-904,2149,1107,6825,-1308,-7846,804,-243,74,811,59.84826222,66.08475344,60.12,66.01702741,0.036410229,0.05170485,-0.001782427,-0.0424786
201,10,0.7,4,86.39455782,2320,-9732,-564,2022,1146,6815,-1572,-7626,750,-244,119,878,59.8836577,66.12673361,60.11953931,65.97548403,0.035395479,0.041980164,-0.000460695,-0.041543381
201,10,0.7,4,87.07482993,2676,-9716,-482,1930,1099,6757,-1134,-8362,972,-278,175,870,59.92139505,66.241381,60.0825124,65.92167666,0.037737353,0.114647399,-0.037026908,-0.053807368
201,10,0.7,4,87.75510204,2972,-9834,-412,1808,964,6596,-1288.778849,-8195.555556,888.5185185,-317.0819049,191.7964189,911.2222222,59.96158004,66.27,60.03841996,65.91,0.040184987,0.028618995,-0.044092433,-0.011676665
201,10,0.7,4,88.43537415,3149.378374,-10216.58728,-451,1712.909831,838.2865572,6404.51431,-1589.77992,-7886.444444,733.4814815,-358.217986,202.3426539,987.7777778,59.99845924,66.27,60.00154076,65.91,0.0368792,0,-0.0368792,0
201,10,0.7,4,89.11564626,3300,-10516,-490,1624,747,6162,-1792,-7720,650,-395,206,1029,60,66.23808467,60,65.84890312,0.001540764,-0.031915327,-0.001540764,-0.061096876
201,10,0.7,4,89.79591837,3445.40462,-10401,-434,1503.950928,698.7682927,5794.978955,-1840,-8370,968,-424,205,994,60.00014208,66.2001776,60,65.7564598,0.00014208,-0.037907073,0,-0.092443326
201,10,0.7,4,90.47619048,3630,-10286,-378,1431,677,5341,-2148.066585,-8219,845,-482.8012408,222.3333333,998.875,60.01486848,66.2185856,60,65.73141141,0.0147264,0.018408,0,-0.025048389
201,10,0.7,4,91.15646259,4111.350631,-10666,-441.5575221,1431.5,718,4849.555406,-2418,-8068,722,-548,257,1007,60.04572288,66.2571536,60,65.71568426,0.0308544,0.038568,0,-0.01572715
201,10,0.7,4,91.83673469,4550,-11046,-530,1432,759,4306,-2059.881892,-8119,823,-591.8016211,317.6666667,1012.007653,60.08118528,66.3014816,60,65.69570185,0.0354624,0.044328,0,-0.019982412
201,10,0.7,4,92.5170068,4651.754521,-10107.19359,-560.4802001,1217.699293,720.2163324,3687.639601,-1644,-8170,924,-634,361,1020,60.10973568,66.3371696,59.97264401,65.64669254,0.0285504,0.035688,-0.027355994,-0.049009301
201,10,0.7,4,93.19727891,4740,-9028,-604,882,652,3076,-1570,-7850,712,-686,355,1067,60.12,66.34943094,59.94,65.61,0.01026432,0.012261342,-0.032644006,-0.036692545
201,10,0.7,4,93.87755102,4926,-8850,-1078,660,588,2571,-1962,-7854,598,-726,316,1143,60.12,66.30183967,59.94,65.61,0,-0.04759127,0,0
201,10,0.7,4,94.55782313,5008.411482,-8841.674584,-1120.894817,455.8967599,606.3314917,1938.914426,-1868,-7958,790,-787,397,1106,60.12371483,66.23933583,59.94,65.61,0.003714834,-0.062503842,0,0
201,10,0.7,4,95.23809524,5096,-8834,-1152,253,644,1245,-1918,-7668,1192,-810,455,1170,60.14592036,66.1683389,59.94,65.61,0.022205526,-0.070996931,0,0
201,10,0.7,4,95.91836735,5425.018373,-8344.064777,-1210.441774,41.61873358,716.1685083,532.49588,-2030,-7928,984,-912,501,1176,60.17113115,66.09705935,59.94,65.65,0.025210786,-0.071279547,0,0.04
201,10,0.7,4,96.59863946,5688,-7862,-1330,-185,769,-187,-1927.786674,-8315.893307,730.6775244,-952.7375244,566.5232895,1205.478186,60.18,66.04044419,59.93770405,65.69,0.008868854,-0.056615164,-0.00229595,0.04
201,10,0.7,4,97.27891156,5668,-12048,-2084,-448,712,-879,-1694,-8788,580,-986,634,1252,60.18,65.99970789,59.89251781,65.69,0,-0.040736298,-0.045186241,0
201,10,0.7,4,97.95918367,6935.810445,-10061.24289,-1952.249572,-553.9340152,584.3911992,-1585.689292,-996.8236904,-9442.229616,662.962963,-1027.909933,697.7969673,1291.312636,60.19251781,65.96110073,59.88,65.69,0.01251781,-0.038607163,-0.01251781,0
201,10,0.7,4,98.63945578,8452,-7504,-1638,-662,493,-2359,22.25482145,-10150.33703,817.037037,-1075.378878,756.3429281,1336.619021,60.23770405,65.92076874,59.88,65.69,0.045186241,-0.040331989,0,0
201,10,0.7,4,99.31972789,8780,-6688,-894,-947,540,-3314,544,-10482,900,-1138,782,1410,60.24,65.835,59.85,65.725,0.00229595,-0.085768738,-0.03,0.035
201,10,0.7,4,100,7377.863035,-9038,834.1887535,-479.5,401.5692627,-3165.071429,-278,-9444,-342,-1246,687,1631,60.24229595,65.74939606,59.82,65.76,0.00229595,-0.085603943,-0.03,0.035
201,10,0.7,1,0,4434,-11388,2084,-12,79,-2897,-416,-9452,-554,-1305,620,1879,60.28748219,65.71087681,59.82,65.76,0.045186241,-0.038519243,0,0
201,10,0.7,1,0.689655172,-968.9374507,-9501.010743,2003.839778,-302.8347688,-928.5692627,-2559.428571,-828.6787968,-9980.946884,-123.6240876,-1434.660557,653.5,1982.613521,60.3,65.66401176,59.82,65.76,0.01251781,-0.046865058,0,0
201,10,0.7,1,1.379310345,-6180,-7184,1736,-621,-1752,-2341,-1146,-10914,668,-1581,687,2079,60.3,65.60433179,59.82,65.76,0,-0.059679969,0,0
201,10,0.7,1,2.068965517,-8118,-6600,-3322,-654,-734,-2457,-1036,-11828,1514,-1679,677,2267,60.3,65.53634422,59.82,65.76,0,-0.067987573,0,0
201,10,0.7,1,2.75862069,-4692,-8008,-4566,-659,470,-2715,-990,-12636,1740,-1850,552,2432,60.3,65.46211115,59.82,65.76,0,-0.074233065,0,0
201,10,0.7,1,3.448275862,331.9046664,-7992.849843,-3256.222222,-686.7901066,306.7200829,-3062.624608,-1168,-12252,1976,-1877,656,2653,60.3,65.36811849,59.82,65.76,0,-0.093992661,0,0
201,10,0.7,1,4.137931034,5735.063444,-7941.255241,-823.7777778,-730.3394978,-23.67094533,-3424.145638,-990,-11890,1598,-1878,804,2910,60.3,65.30624125,59.80608398,65.76,0,-0.061877238,-0.013916016,0
201,10,0.7,1,4.827586207,8260,-7844,486,-753,-282,-3591,-696.5634335,-12697.11601,1595.946908,-1910.803187,940.3025962,3152.46856,60.3,65.26556813,59.76067383,65.76,0,-0.040673125,-0.045410156,0
201,10,0.7,1,5.517241379,4798,-6672,-1150,-617,-391,-2785,-272,-13620,1594,-1969,1014,3362,60.26735599,65.18587289,59.76,65.78823652,-0.032644006,-0.079695235,-0.000673828,0.028236515
201,10,0.7,1,6.206896552,-244,-7630,-1410,-619,-260,-2654,426,-13766,1550,-2029,973,3512,60.24,65.09256019,59.75770405,65.83895921,-0.027355994,-0.093312706,-0.00229595,0.050722695
201,10,0.7,1,6.896551724,-360,-9896,-514,-294,126,-2703,112.4833659,-13381.18992,1203.629242,-1988.251751,1007.116642,3721.451391,60.24,65.00455709,59.71251781,65.88657627,0,-0.088003097,-0.045186241,0.047617058
201,10,0.7,1,7.586206897,2588,-7728,562,-309,45,-2407,-642.3666015,-12607.04651,633.7035099,-1903.725724,1090.566616,3965.441536,60.24,64.94030181,59.7,65.9369475,0,-0.064255275,-0.01251781,0.050371234
201,10,0.7,1,8.275862069,2493,-7531.460878,655.0418746,-286.818466,-60.12977227,-2081.849066,-1560,-12014,334,-1832,1195,4191,60.24,64.90045234,59.7,65.97947946,0,-0.03984947,0,0.042531956
201,10,0.7,1,8.965517241,2398,-7470,684,-242,-124,-1806,-2861.310786,-11713.91134,527.9721338,-1783.383447,1339.579687,4420.171453,60.27264401,64.9,59.66735599,65.98,0.032644006,-0.000452344,-0.032644006,0.000520542
201,10,0.7,1,9.655172414,2512.592593,-7478.225525,649.7777778,-163.0264309,-90.81481481,-1651.564099,-4236,-11570,876,-1758,1531,4550,60.3,64.9,59.64,65.98,0.027355994,0,-0.027355994,0
201,10,0.7,2,10.34482759,2725.407407,-7506.895494,586.2222222,-63.79099322,-29.18518519,-1534.047872,-5367.233001,-12737,1249.31807,-1823,1762.344894,4540.551247,60.3,64.9,59.64,65.98,0,0,0,0
201,10,0.7,2,11.03448276,2840,-7562,552,-15,4,-1374,-5972,-13904,1590,-1888,2020,4514,60.3,64.87999593,59.64,65.98,0,-0.020004071,0,0
201,10,0.7,2,11.72413793,2444,-8482,672,-27,-43,-1070,-5743.505761,-13379.75401,1770.460616,-1863.798548,2278.136616,4269.939504,60.3,64.83069815,59.64,65.98,0,-0.049297781,0,0
201,10,0.7,2,12.4137931,2214,-8312,1052,-30,-67,-914,-5182,-12292,1958,-1804,2539,3828,60.3,64.83,59.62904583,65.99277986,0,-0.000698148,-0.01095417,0.012779865
201,10,0.7,2,13.10344828,2041.149682,-8416,709,-16.31287425,-47.21641791,-783.7402539,-3389.512031,-10672.52237,2314.913487,-1623.66173,2817.21077,3321.699935,60.3,64.83,59.60323399,66.02289368,0,0,-0.025811837,0.03011381
201,10,0.7,2,13.79310345,1954,-8520,366,11,-23,-638,-938,-8546,2810,-1337,3049,2676,60.3,64.83,59.58243092,66.04716393,0,0,-0.020803072,0.024270251
201,10,0.7,2,14.48275862,2320,-8202,650,48,-17,-405,948,-6128,3478,-994,3177,1807,60.3,64.83,59.58,66.05,0,0,-0.002430921,0.002836074
201,10,0.7,2,15.17241379,2240,-8570,838,49,-39,-268,-2406,-4238,-1234,-782,2315,1449,60.3,64.83,59.58,66.05,0,0,0,0
201,10,0.7,2,15.86206897,2049.338058,-8471.481481,881.4569222,34.54941682,-42.98192124,-126.0532377,-2285.631436,-2936.821644,-1354.985549,-368.5718812,1115.231025,1358.345119,60.3,64.86239784,59.58,66.08176359,0,0.032397844,0,0.031763588
201,10,0.7,2,16.55172414,1794.884652,-8288.518519,907.3951277,6.765500307,-45.2687384,12.49314518,-2032,-2300,-1390,91,307,1272,60.3,64.91377352,59.58,66.13327387,0,0.051375678,0,0.051510285
201,10,0.7,2,17.24137931,1632,-8190,916,-11,-46,116,-1526.454269,-2317.069871,-938.4375,435.2700268,188.9879434,894.4559573,60.3,64.96093211,59.58,66.17783504,0,0.047158585,0,0.044561163
201,10,0.7,2,17.93103448,1585.059015,-8369.929688,792,-15.24309392,-21.5,170.2267797,-760.7371277,-2371.852989,55,744.0292167,107.1281719,194.3819924,60.28608398,64.95846436,59.56608398,66.22024582,-0.013916016,-0.002467752,-0.013916016,0.042410783
201,10,0.7,2,18.62068966,1550,-8622,668,-17,3,227,-61.65142291,-2469.709612,1048.4375,1032.523798,59.45431447,-609.8829686,60.24067383,64.90463135,59.52067383,66.26422872,-0.045410156,-0.053833008,-0.045410156,0.043982899
201,10,0.7,2,19.31034483,1508,-8736,668,2,-25,353,244,-2616,1500,1316,44,-1300,60.24,64.86033424,59.52,66.34912536,-0.000673828,-0.044297105,-0.000673828,0.084896642
201,10,0.7,2,20,1300.673288,-8629.926552,697,-13.5,-74.14826498,455.7348993,-646,-3426,666,1590,144,-1816,60.24,64.81559531,59.52,66.44690248,0,-0.044738936,0,0.097777115
201,10,0.7,2,20.68965517,1054,-8382,726,-29,-107,509,-1168,-3872,-318,1955,266,-2551,60.24,64.76674826,59.52,66.53426839,0,-0.048847048,0,0.087365911
201,10,0.7,2,21.37931034,942,-7834,440,-9,-49,469,-1047.185185,-4039.094334,-498.1601421,2232.192013,231.2268615,-3011.163314,60.22101563,64.76,59.50101563,66.62199142,-0.018984375,-0.006748259,-0.018984375,0.087723034
201,10,0.7,2,22.06896552,1044,-8082,368,24,-47,453,-822.8148148,-4143.170093,-586.6654249,2471.688781,137.3426119,-3373.062232,60.18,64.76,59.46,66.72,-0.041015625,0,-0.041015625,0.098008579
201,10,0.7,2,22.75862069,636,-7844,600,43,-69,453,-702,-4316,-726,2703,0,-3716,60.18,64.76,59.46,66.87743613,0,0,0,0.15743613
201,10,0.7,2,23.44827586,272.3875124,-7944.759409,393,59.97287926,-72.01020408,413.3544304,-844,-4816,-1080,2932,-324,-4058,60.17742188,64.76,59.46067383,67.05343821,-0.002578125,0,0.000673828,0.176002084
201,10,0.7,2,24.13793103,78,-8134,186,77,-73,337,-849.3026248,-5407.35884,-1047.661972,3095.83925,-548.6771036,-4354.209337,60.129375,64.76,59.47898438,67.22413779,-0.048046875,0,0.018310547,0.170699575
201,10,0.7,2,24.82758621,132.3284884,-8405.240591,259.809223,101.0410959,-57,237.8889907,-854,-6008,-998,3226,-723,-4633,60.12,64.76,59.50608398,67.39310416,-0.009375,0,0.027099609,0.168966373
201,10,0.7,2,25.51724138,254,-8588,416,116,-41,137,-934.3159979,-6602.957538,-959.3380282,3339.389978,-859.6124815,-4922.340484,60.12,64.76,59.52,67.55,0,0,0.013916016,0.156895838
201,10,0.7,2,26.20689655,488,-8534,668,99,-49,72,-1074,-7054,-938,3418,-971,-5181,60.12,64.76,59.52,67.72011938,0,0,0,0.170119382
201,10,0.7,2,26.89655172,76,-7962,896,105,-69,10,-1222,-7248,-1032,3451,-1061,-5370,60.12,64.76,59.52,67.78,0,0,0,0.059880618
201,10,0.7,2,27.5862069,91.41811258,-7876.676773,1017.118854,93.70200476,-90.16809117,-64.41063248,-1437.929668,-7482.528276,-1222.850229,3488.128502,-1202.216128,-5561.932418,60.12,64.76,59.52,67.78,0,0,0,0
201,10,0.7,2,28.27586207,130.3917807,-7828.893942,1105.670538,66.84845396,-110.1396011,-148.4248284,-1696,-7724,-1406,3519,-1377,-5735,60.10285365,64.78000407,59.53216212,67.78,-0.017146346,0.020004071,0.012162122,0
201,10,0.7,2,28.96551724,182,-7814,1140,35,-119,-242,-1982,-7940,-1484,3535,-1576,-5864,60.06059841,64.82930185,59.57617946,67.78,-0.042255241,0.049297781,0.044017341,0
201,10,0.7,2,29.65517241,270,-8224,1140,-5,-91,-354,-2355.417463,-8114.854745,-1379,3511.13866,-1673.349476,-5989.776585,60.06,64.78847168,59.61355616,67.71244471,-0.000598412,-0.040830173,0.037376699,-0.067555286
201,10,0.7,2,30.34482759,387.7448609,-8356.414286,1059,-37.56840367,-102,-401.4374391,-2676,-8312,-1204,3464,-1716,-6101,60.05446289,64.76,59.65134895,67.6002308,-0.005537109,-0.02847168,0.037792791,-0.112213917
201,10,0.7,2,31.03448276,460,-8408,978,-66,-113,-443,-2830,-8644,-1064,3402,-1712,-6183,60.00553711,64.76,59.6891788,67.49837915,-0.048925781,0,0.037829844,-0.101851644
201,10,0.7,2,31.72413793,401,-8367,994,-91.00405787,-108.5172414,-514.0605133,-2922.063804,-9046.841635,-1051.8,3335.667083,-1726.533898,-6204.867246,60,64.78352538,59.72530211,67.39578061,-0.005537109,0.023525377,0.036123314,-0.102598547
201,10,0.7,2,32.4137931,342,-8326,1010,-114,-100,-588,-2980,-9404,-1048,3263,-1761,-6213,60,64.82937586,59.75745223,67.3208596,0,0.04585048,0.032150122,-0.074921002
201,10,0.7,2,33.10344828,464,-8334,968,-136,-90,-642,-3006,-9612,-1134,3177,-1841,-6121,59.9884314,64.82186901,59.77853255,67.32,-0.011568604,-0.00750685,0.021080317,-0.000859605
201,10,0.7,2,33.79310345,665.6496599,-8259.602761,970.2,-159.1455007,-100.9848485,-721.7765939,-3032,-9674,-1186,3101,-1909,-6022,59.96166138,64.79878813,59.79474551,67.32,-0.02677002,-0.023080877,0.016212959,0
201,10,0.7,2,34.48275862,798,-8112,976,-184,-115,-814,-3246,-9762,-1358,2915,-2015,-5804,59.94148315,64.76899695,59.81305879,67.32,-0.020178223,-0.029791176,0.018313279,0
201,10,0.7,2,35.17241379,774,-7860.397239,998.2545455,-211.389346,-118.9254079,-920.8304408,-3388,-9990,-1506,2777,-2114,-5624,59.94,64.73655444,59.84058939,67.32927178,-0.001483154,-0.032442518,0.027530599,0.009271781
201,10,0.7,2,35.86206897,750,-7682,1048,-242,-123,-1001,-3558.272746,-10151.22696,-1542.091371,2579.422783,-2221.372298,-5355.634016,59.94,64.69,59.87789173,67.36181763,0,-0.046554436,0.037302344,0.032545844
201,10,0.7,2,36.55172414,773.7992126,-7770.362881,1291.545455,-274.6959225,-134.724359,-1027.978653,-3748.247922,-10295.81285,-1563.280185,2334.343798,-2335.469821,-5013.929436,59.90726599,64.58639313,59.91783525,67.3930278,-0.032734014,-0.103606866,0.039943517,0.031210173
201,10,0.7,2,37.24137931,828,-7976,1504,-317,-154,-1046,-3960.099137,-10399.99232,-1578.828906,2056.842914,-2426.082433,-4620.510138,59.86632072,64.55,59.9527377,67.4,-0.040945264,-0.036393134,0.034902447,0.006972201
201,10,0.7,2,37.93103448,938,-8424,1142,-392,-185,-1062,-4196,-10440,-1598,1762,-2463,-4197,59.83367928,64.55,59.98356955,67.4,-0.032641443,0,0.03083185,0
201,10,0.7,2,38.62068966,1069.930052,-9467.137426,1386,-454.019629,-245.6767205,-1057,-4487.415856,-10295.24965,-1620.282502,1423.913277,-2441.821782,-3710.535816,59.79800745,64.59429688,60.03832138,67.3746875,-0.035671827,0.044296875,0.054751836,-0.0253125
201,10,0.7,2,39.31034483,1148,-10222,1630,-500,-304,-1052,-4806,-9998,-1648,1067,-2394,-3161,59.76,64.69,60.12,67.32,-0.038007452,0.095703125,0.081678619,-0.0546875
201,10,0.7,2,40,1000,-7578,636,-524,-330,-1073,-5119.563026,-9547.878496,-1714.73494,744.9126572,-2298.467098,-2585.768986,59.71371094,64.65209466,60.21257813,67.32,-0.046289062,-0.037905336,0.092578125,0
201,10,0.7,2,40.68965517,1070.525424,-7726.306971,634.4382065,-530.1241272,-308.5,-1139.355541,-5408,-9014,-1764,416,-2160,-1954,59.7,64.60323451,60.2315978,67.32,-0.013710937,-0.048860157,0.019019677,0
201,10,0.7,2,41.37931034,1228,-7920,634,-537,-287,-1191,-5632,-8556,-1726,44,-1996,-1218,59.7,64.56229797,60.18494606,67.32,0,-0.040936533,-0.04665174,0
201,10,0.7,2,42.06896552,1528,-7986,964,-583,-328,-1190,-5604.518519,-8192.004471,-1658.105418,-242.2341501,-1857.550413,-648.3906494,59.72214126,64.51419499,60.20214126,67.34952168,0.022141258,-0.048102981,0.017195196,0.029521677
201,10,0.7,2,42.75862069,1239,-8116.108401,802,-601.8977273,-351.9189861,-1179.379568,-5553.481481,-7864.042498,-1558.886636,-488.6398817,-1728.912792,-146.3678308,59.76,64.48,60.24,67.4,0.037858742,-0.034194993,0.037858742,0.050478323
201,10,0.7,2,43.44827586,950,-8280,640,-615,-363,-1163,-5526,-7494,-1432,-701,-1586,387,59.72214126,64.48,60.24,67.4,-0.037858742,0,0,0
201,10,0.7,2,44.13793103,1072,-8442,680,-627,-350,-1150,-5672,-7016,-1232,-873,-1408,1008,59.7,64.48,60.24553711,67.39490234,-0.022141258,0,0.005537109,-0.005097656
201,10,0.7,2,44.82758621,1570,-8040,758,-670,-373,-1169,-5873.204727,-8145.365449,-1195.863436,-946.7215667,-1116.111487,1450.809708,59.7,64.48,60.29446289,67.33728516,0,0,0.048925781,-0.057617188
201,10,0.7,2,45.51724138,1567,-8007.911559,763.1153783,-730.1066149,-430.6901413,-1198.604968,-6286,-10440,-1156,-1020,-925,1891,59.7,64.50847168,60.3,67.27638672,0,0.02847168,0.005537109,-0.060898438
201,10,0.7,2,46.20689655,1564,-7998,768,-797,-478,-1232,-9336,-13718,-750,-1188,-1047,2499,59.7,64.54930185,60.3,67.24,0,0.040830173,0,-0.036386719
201,10,0.7,2,46.89655172,1576,-8244,816,-861,-484,-1262,-8591.365736,-12457.62281,784.705182,-747,-971.5133727,2781.283556,59.7,64.50000407,60.3,67.24,0,-0.049297781,0,0
201,10,0.7,3,47.5862069,1712.031294,-8679.14519,1175.288587,-892.5699249,-567.1651676,-1344.058504,-6904,-10248,2466,-306,-784,2903,59.6915978,64.48,60.3084022,67.23335857,-0.008402198,-0.020004071,0.008402198,-0.006641428
201,10,0.7,3,48.27586207,1838,-9574,1710,-928,-733,-1443,-3058.805209,-7677.377186,3317.292748,-426.4780876,28.51337275,2643,59.64494606,64.48,60.35505394,67.1847067,-0.04665174,0,0.04665174,-0.048651876
201,10,0.7,3,48.96551724,1596,-14032,2128,-1029,-995,-1511,1486,-6056,3718,-690,729,2383,59.64,64.45416853,60.36,67.12983988,-0.004946061,-0.025831468,0.004946061,-0.054866816
201,10,0.7,3,49.65517241,438.8511839,-13618.92475,593,-1120.09748,-915.2367297,-1667.430911,5006.170946,-6914,927.1577583,-1322.521912,682.770164,2429.028375,59.64,64.41,60.36,67.09,0,-0.044168532,0,-0.039839881
201,10,0.7,3,50.34482759,-534,-12794,-942,-1169,-792,-1872,6884,-7772,-3476,-1812,543,2534,59.68101563,64.41,60.40101563,67.09,0.041015625,0,0.041015625,0
201,10,0.7,3,51.03448276,-340,-11674,-556,-988,-714,-2071,1756,-7296,-6454,-1175,-438,2748,59.7,64.41,60.42,67.08333966,0.018984375,0,0.018984375,-0.006660343
201,10,0.7,3,51.72413793,72,-10000,-416,-1118,-901,-2243,-2243.882199,-6604.785812,-3809.186722,-687.3952514,-431.339099,3039.996969,59.7,64.41,60.42,67.03174034,0,0,0,-0.051599316
201,10,0.7,3,52.4137931,-291,-11311,-411.0832829,-1186.993506,-775.5054348,-2424.57346,-5078,-6070,-54,-440,-409,3235,59.7,64.38080933,60.42,66.96081671,0,-0.029190672,0,-0.070923635
201,10,0.7,3,53.10344828,-654,-12622,-406,-1218,-557,-2616,-6444,-5928,1730,-739,39,3254,59.7,64.34,60.42,66.87,0,-0.040809328,0,-0.090816706
201,10,0.7,3,53.79310345,236,-12448,64,-1199,-358,-2824,-4735.051852,-6828.359336,753.3043478,-952.9278557,418.580568,2797.5,59.7,64.3724707,60.42,66.76998781,0,0.032470703,0,-0.100012191
201,10,0.7,3,54.48275862,658,-11578,530,-1256,-377,-2919,-2234,-7906,-766,-1059,618,2341,59.7,64.44997017,60.42283607,66.69625966,0,0.077499469,0.002836074,-0.073728153
201,10,0.7,3,55.17241379,132,-11914,612,-1259,-382,-2999,-567.9481481,-8210.640664,-1997.304348,-794.1569632,390.2050222,2344.150685,59.7,64.59687921,60.44710632,66.64868755,0,0.146909033,0.024270251,-0.047572107
201,10,0.7,3,55.86206897,130.4388336,-12013.88455,469,-1242.047147,-332.5,-3177.203032,306,-8338,-2686,-350,28,2351,59.7,64.70657554,60.47722014,66.60879302,0,0.109696333,0.03011381,-0.039894527
201,10,0.7,3,56.55172414,130,-12052,326,-1208,-283,-3369,-1718,-7882,-1060,12,-223,2363,59.69932617,64.76,60.48921387,66.56489312,-0.000673828,0.053424462,0.011993732,-0.043899903
201,10,0.7,3,57.24137931,342,-11032,1280,-1161,-587,-3479,-3372,-8012,502,58,-136,2109,59.65391602,64.76,60.43623535,66.50341103,-0.045410156,0,-0.052978516,-0.061482085
201,10,0.7,3,57.93103448,-190,-10882,1586,-1144,-744,-3750,-3624,-8170,1438,-28,138,1679,59.65131687,64.77320302,60.43320302,66.49,-0.002599143,0.013203018,-0.003032334,-0.013411034
201,10,0.7,3,58.62068966,747.3753461,-11102.0608,1408.148148,-1176.18181,-757.6457987,-4083.787305,-3564.1875,-8232.783349,1410.751565,-27.68929476,133.7406716,1446.935007,59.69555556,64.82481481,60.48481481,66.49,0.044238683,0.051611797,0.051611797,0
201,10,0.7,3,59.31034483,2688.306248,-11661.67715,1077.851852,-1257.252509,-762.8183734,-4418.615875,-3406.5,-8287.393391,1335.041081,-26.72043919,122.2537313,1249.375291,59.6755957,64.80152832,60.49,66.52253906,-0.019959852,-0.023286495,0.005185185,0.032539063
201,10,0.7,4,60,4326,-12410,900,-1364,-776,-4571,-3183.5625,-8333.769157,1219.920777,-25.03832348,105.4757463,1081.220355,59.64,64.76078613,60.49,66.57,-0.035595703,-0.040742188,0,0.047460937
201,10,0.7,4,60.68965517,5190,-13724,1648,-1543,-892,-4551,-2928,-8371.849681,1074.442883,-22.58783784,85.34328358,937.3697033,59.64,64.81376465,60.49,66.57,0,0.052978516,0,0
201,10,0.7,4,61.37931034,4879.088041,-13320.10814,1473,-1582.778202,-1028.433151,-4446.115198,-2672.4375,-8401.573994,907.6596289,-19.31387247,63.79291045,812.7228382,59.64,64.83,60.49,66.57,0,0.016235352,0,0
201,10,0.7,4,62.06896552,4276,-12340,1298,-1597,-1212,-4232,-2449.5,-8422.88113,728.6232437,-15.16131757,42.76119403,702.1792637,59.64,64.83,60.49,66.57,0,0,0,0
201,10,0.7,4,62.75862069,3524,-9876,1542,-1418,-1551,-3767,-2291.8125,-8435.710121,546.3859575,-10.07506334,24.18470149,600.6384832,59.64,64.89383065,60.49,66.60191533,0,0.063830653,0,0.031915327
201,10,0.7,4,63.44827586,2908,-8476,1856,-1311,-1794,-3417,-2232,-8440,370,-4,10,503,59.64059841,64.97,60.49,66.64,0.000598412,0.076169347,0,0.038084673
201,10,0.7,4,64.13793103,1698,-6610,1892,-1164,-2211,-2544,-2300,-8328,118.3892792,21.81781373,-2.335820896,421.803963,59.68285365,64.97,60.49,66.64,0.042255241,0,0,0
201,10,0.7,4,64.82758621,102,-4182,2018,-1026,-2299,-1749,-2368,-8216,-48,61,-9,344,59.690625,64.97,60.49,66.64,0.007771346,0,0,0
201,10,0.7,4,65.51724138,107.6656192,-4192.529948,1990.245375,-829.3869707,-2017.368,-1423.045931,-2032,-8366,166,95,19,242,59.64257813,64.97,60.49,66.64,-0.048046875,0,0,0
201,10,0.7,4,66.20689655,124.5968575,-4222.949843,1911.856126,-586.6154348,-1345.784,-1213.29055,-2002.41366,-8329.633294,274.2083863,128.6629809,6.119695855,159.1079287,59.67,64.94639334,60.49,66.68,0.027421875,-0.023606658,0,0.04
201,10,0.7,4,66.89655172,152.6952863,-4271.504764,1790.144189,-320.4504135,-544.216,-1051.412204,-1986.651275,-8254.599921,352.1041931,161.5679246,-25.64949718,84.68313003,59.69770405,64.88577254,60.49,66.71693873,0.02770405,-0.060620806,0,0.036938734
201,10,0.7,4,67.5862069,191.8624767,-4336.43979,1632.421501,-53.65692819,127.368,-869.0892388,-1982,-8192,382,191,-66,10,59.65251781,64.78329472,60.49,66.65669041,-0.045186241,-0.102477812,0,-0.060248321
201,10,0.7,4,68.27586207,242,-4416,1446,191,409,-598,-2128,-8160,342,215,-127,-68,59.64,64.79355384,60.49,66.65213108,-0.01251781,0.010259113,0,-0.004559332
201,10,0.7,4,68.96551724,468.89747,-4672.571957,1040.48415,409.7862615,377.1556122,-122.9308304,-2432.280202,-8100.47619,470.1216931,218.0188679,-89.03373016,-189.8620207,59.64,64.94657643,60.49,66.71009974,0,0.153022593,0,0.057968655
201,10,0.7,4,69.65517241,668,-4886,564,620,336,446,-2646,-8060,632,219,-38,-306,59.64,65.03850172,60.45808467,66.75275367,0,0.091925293,-0.031915327,0.042653937
201,10,0.7,4,70.34482759,666,-4609.086383,254.333251,827.8489076,318.8443878,989.7187918,-2386.713583,-8155,692.8783069,197,-12.96626984,-387.1638889,59.64,65.11904653,60.42,66.79487158,0,0.080544809,-0.038084673,0.042117903
201,10,0.7,4,71.03448276,664,-4260,10,1027,311,1506,-1952,-8250,720,175,-1,-428,59.64,65.22053604,60.42,66.85630137,0,0.101489507,0,0.061429795
201,10,0.7,4,71.72413793,794.1655783,-4126.364949,-210.7125329,1217.678193,355.3333333,1950.103611,-1598,-7754,330,178,-19,-426,59.64,65.28590611,60.40608398,66.85144531,0,0.065370073,-0.013916016,-0.004856057
201,10,0.7,4,72.4137931,1058.553379,-4029.404697,-401.0229331,1400.272187,437.6666667,2358.810945,-1688,-8022,312,208,-35,-392,59.64,65.32594023,60.36067383,66.79089844,0,0.040034116,-0.045410156,-0.060546875
201,10,0.7,4,73.10344828,1268,-3992,-482,1565,482,2760,-1050,-8170,668,226,0,-383,59.64,65.365,60.36,66.83,0,0.039059773,-0.000673828,0.039101563
201,10,0.7,4,73.79310345,1386.14338,-4140.094493,-475.1144231,1717.320462,468.7078645,3163.12942,-759.8863939,-8247.385321,653,207,-13.5,-324.7873918,59.64,65.4039801,60.36,66.87,0,0.038980104,0,0.04
201,10,0.7,4,74.48275862,1491.460782,-4504.418649,-458.1384615,1862.320504,433.3043053,3559.955871,-596,-8282,638,188,-27,-231,59.64,65.4408806,60.36,66.87,0,0.036900496,0,0
201,10,0.7,4,75.17241379,1567.047793,-4965.03348,-436.5932692,1989.660294,382.4985934,3951.804388,-526,-8158,710,201,-13,-135,59.64,65.56239141,60.36,66.85613841,0,0.121510807,0,-0.013861586
201,10,0.7,4,75.86206897,1596,-5402,-416,2089,323,4340,-555.4876515,-8099.139111,784.1524631,184.0061834,4.76068665,-60.12751254,59.64,65.81949955,60.36,66.76766387,0,0.257108143,0,-0.088474546
201,10,0.7,4,76.55172414,1537,-5818.249859,-395.0794179,2161.14551,228.924149,4713.627028,-631.0715959,-8048.453618,865.4307084,140.0642312,26.17812336,6.745520832,59.64,65.88914222,60.36,66.64800559,0,0.069642666,0,-0.119658277
201,10,0.7,4,77.24137931,1478,-6234,-376,2215,103,5101,-733.4333182,-8007.07024,944.6446602,79.73339012,48.18154158,67.85694444,59.64032067,65.90700794,60.35967295,66.55566906,0.00032067,0.017865722,-0.000327055,-0.09233653
201,10,0.7,4,77.93103448,1492,-6596,-364,2252,-38,5547,-843.254303,-7976.115698,1012.604243,13.57290681,67.70017279,125.4446026,59.65027222,65.82426827,60.34923894,66.4922817,0.009951552,-0.08273967,-0.010434006,-0.063387359
201,10,0.7,4,78.62068966,1516,-6832,-392,2267,-126,5829,-941.2160353,-7956.716711,1060.119382,-47.85797211,81.66324844,181.7463397,59.67025109,65.69573173,60.32723539,66.43750742,0.01997887,-0.128536536,-0.022003554,-0.054774279
201,10,0.7,4,79.31034483,1476,-6923.728735,-621.3485417,2289.020103,-120.0264216,6104.179154,-1008,-7950,1078,-94,87,239,59.69495771,65.61299206,60.29788274,66.38430193,0.024706618,-0.08273967,-0.029352641,-0.053205492
201,10,0.7,4,80,1436,-7018,-964,2318,-101,6364,-1038.200344,-8018.915121,1073.409742,-122.2879416,78.5,290.301213,59.72751672,65.63727273,60.26540148,66.32562093,0.032559013,0.024280665,-0.032481268,-0.058681
201,10,0.7,4,80.68965517,1492,-7282,-1228,2359,101,6593,-1076,-8162,1060,-152,70,351,59.76774861,65.70420679,60.23276462,66.25191154,0.04023189,0.066934067,-0.032636859,-0.073709388
201,10,0.7,4,81.37931034,1516.659628,-7744.283111,-1230.449274,2354.565101,349.027134,6727.363083,-1230,-8380,984,-202,101,462,59.80755715,65.79692248,60.18709389,66.13773474,0.039808541,0.092715688,-0.045670723,-0.114176807
201,10,0.7,4,82.06896552,1533.351329,-8331.813534,-1231.669081,2342.352425,627.3880465,6828.848208,-1162.592593,-8351.176479,862.6622836,-224.9535995,104.3197694,534.6979696,59.83571285,65.87009229,60.18,66.12,0.028155697,0.07316981,-0.007093894,-0.017734735
201,10,0.7,4,82.75862069,1566,-8842,-1232,2324,916,6869,-1037.407407,-8296.575181,727.7755862,-240.7268838,105.8176625,593.1155835,59.86149045,65.9277004,60.18,66.12,0.025777603,0.057608103,0,0
201,10,0.7,4,83.44827586,1798.744297,-9185.765065,-1034.826121,2275.403699,1248.785933,6837.411765,-970,-8264,664,-260,108,649,59.88563294,65.9777253,60.15727495,66.09639334,0.024142486,0.050024901,-0.022725046,-0.023606658
201,10,0.7,4,84.13793103,2210,-9518,-658,2189,1520,6773,-1027.129925,-8259.916438,689.168,-291.7771391,111.7532346,712.9496033,59.90684568,66.02470424,60.11279534,66.03706116,0.021212735,0.046978942,-0.04447961,-0.059332177
201,10,0.7,4,84.82758621,2722,-9942,-208,2042,1640,6680,-1170.669775,-8257.942302,749.184,-333.0717198,116.6277039,781.5285652,59.92383402,66.07317446,60.07780411,65.94875827,0.016988349,0.048470227,-0.034991236,-0.088302892
201,10,0.7,4,85.51724138,3098.46169,-10247.13187,-40.01046025,1909.003928,1565.055391,6587.44826,-1358.844663,-8256.609947,820.816,-376.5777309,123.1255559,845.4327255,59.93530335,66.12767322,60.0428587,65.87677667,0.011469329,0.054498755,-0.034945412,-0.071981602
201,10,0.7,4,86.20689655,3398,-10402,28,1784,1415,6468,-1549.879701,-8254.451728,880.832,-414.9891614,131.7489386,895.3579239,59.93995903,66.19273775,60.00485523,65.83053475,0.004655674,0.065064526,-0.038003471,-0.046241918
201,10,0.7,4,86.89655172,3647.366512,-10407.96581,17.86212625,1661.400252,1201.087812,6228.729588,-1702,-8250,906,-441,143,922,59.94,66.30163232,59.92019531,65.83,4.10E-05,0.108894571,-0.084659913,-0.000534752
201,10,0.7,4,87.5862069,3828,-10410,-6,1551,963,5929,-1835.684492,-8197.478076,855.3926139,-453.5168783,170.5325854,932.4747821,59.94297216,66.33888889,59.88,65.82481481,0.002972158,0.037256572,-0.040195313,-0.005185185
201,10,0.7,4,88.27586207,3922,-10386,-60,1464,782,5653,-1910,-8148,728,-466,209,937,59.97946771,66.22829218,59.88,65.77320302,0.036495547,-0.110596708,0,-0.051611797
201,10,0.7,4,88.96551724,3950,-10422,-164,1339,594,5156,-1846,-8292,362,-491,245,919,60.02226664,66.25102539,59.88,65.76,0.042798934,0.02273321,0,-0.013203018
201,10,0.7,4,89.65517241,3994,-10388,-250,1257,520,4753,-1660,-7768,640,-501,308,976,60.05953321,66.4175293,59.88,65.76,0.037266572,0.166503906,0,0
201,10,0.7,4,90.34482759,4063.400798,-10244.30033,-330.4815195,1158.723398,470.799373,4228.036329,-1308,-8118,468,-544,325,954,60.06,66.42,59.91264401,65.72661944,0.000466788,0.002470703,0.032644006,-0.033380557
201,10,0.7,4,91.03448276,4132,-10028,-422,1038,447,3598,-1312,-7952,696,-559,315,1032,60.06257813,66.41768663,59.93983805,65.68583856,0.002578125,-0.002313368,0.027194044,-0.040780885
201,10,0.7,4,91.72413793,4174,-9812,-558,866,459,2816,-1373.89549,-7929.868379,855.5089582,-592.7438642,307.0714286,1088.676247,60.110625,66.36808036,59.93477085,65.66617462,0.048046875,-0.049606275,-0.005067201,-0.019663937
201,10,0.7,4,92.4137931,4244,-9602,-728,736,492,2266,-1470,-7914,934,-642,303,1134,60.12,66.33325531,59.92444444,65.6487457,0.009375,-0.034825048,-0.010326405,-0.017428923
201,10,0.7,4,93.10344828,4293.310284,-9358.118143,-895.4823377,545.952701,582.1575208,1635.171264,-1526.866695,-7871.781818,903.0545455,-715.7560836,356.5,1168.173551,60.12,66.31194353,59.91136322,65.63400119,0,-0.021311777,-0.013081225,-0.014744509
201,10,0.7,4,93.79310345,4356,-9050,-1056,322,715,971,-1614,-7842,842,-781,410,1201,60.12,66.29148469,59.89803156,65.62239049,0,-0.020458841,-0.013331664,-0.011610695
201,10,0.7,4,94.48275862,4530.244433,-8560.967791,-1204.068432,87.93453483,879.9557139,306.3952863,-2082,-8110,762,-806,395,1243,60.12257813,66.26358312,59.88695384,65.61436301,0.002578125,-0.027901567,-0.011077719,-0.00802748
201,10,0.7,4,95.17241379,4808,-7986,-1344,-164,1047,-359,-2222,-8136,716,-879,471,1216,60.170625,66.22349189,59.88063444,65.61036815,0.048046875,-0.040091231,-0.006319392,-0.003994865
201,10,0.7,4,95.86206897,5204,-7448,-1476,-438,1168,-1011,-2395.673586,-8127.185185,428.5080592,-899.2316866,513.7551583,1216.259259,60.18,66.12379381,59.88,65.6353125,0.009375,-0.099698086,-0.000634444,0.024944352
201,10,0.7,4,96.55172414,6270.455868,-9158.074074,-1498.830547,-606.041888,1148.444194,-1643.027222,-2570.392348,-8110.814815,-30.30152597,-911.7269544,546.1569469,1216.740741,60.18,65.98,59.88,65.69,0,-0.143793806,0,0.0546875
201,10,0.7,4,97.24137931,7689.116823,-12333.92593,-1511.859718,-736.3645684,1094.221721,-2233.567808,-2650,-8102,-270,-916,587,1217,60.18,65.94015975,59.84214126,65.69,0,-0.039840253,-0.037858742,0
201,10,0.7,4,97.93103448,8398,-14044,-1516,-846,1012,-2618,-2126,-8280,140,-899,654,1189,60.18494606,65.88372807,59.82,65.69577041,0.004946061,-0.056431675,-0.022141258,0.005770405
201,10,0.7,4,98.62068966,7631.909982,-13599.92605,-975.9533314,-959.7422817,768.250136,-2825.126018,-2390,-9518.726714,455.783844,-927.3319672,982.1118366,1248,60.2315978,65.74085543,59.82,65.75019744,0.04665174,-0.142872638,0,0.05442703
201,10,0.7,4,99.31034483,5988,-12604,208,-1021,371,-2919,-2654,-11602,772,-961,1259,1307,60.24,65.62876309,59.82,65.76,0.008402198,-0.112092342,0,0.009802565
201,10,0.7,4,100,3109.257045,-9965.073954,2842.721453,-429,-80.93603928,-2909.096683,-284,-13952,1184,-968,969,1289,60.24,65.54607917,59.82,65.76,0,-0.082683924,0,0
201,10,0.7,1,0,-478,-7878,5298,163,-700,-2876,403.3,-12028,418,-1096.121858,684.3344371,1530.52858,60.24,65.49811899,59.82,65.76,0,-0.047960176,0,0
201,10,0.7,1,0.699300699,-3604,-9576,5914,-339,-1748,-2249,664,-10104,-348,-1295,527,1868,60.24,65.45675955,59.82,65.76153877,0,-0.041359437,0,0.001538775
201,10,0.7,1,1.398601399,-2452.304,-9367.584,5410.651701,-473.7833229,-1549.984,-2432.872,1.77E-10,-11134.13649,-69.89498665,-1444.9759,568.1964883,2005.797127,60.24,65.41262474,59.82,65.78287503,0,-0.044134817,0,0.021336251
201,10,0.7,1,2.097902098,294.048,-8870.592,4177.475102,-575.7012383,-1077.792,-2871.336,-664,-12182,544,-1585,643,2155,60.24,65.3725558,59.82,65.81276002,0,-0.040068941,0,0.029884999
201,10,0.7,1,2.797202797,3571.952,-8277.408,2629.772653,-646.4274922,-514.208,-3394.664,-186,-12202,1672,-1711,720,2511,60.24,65.33408492,59.82,65.8298219,0,-0.038470872,0,0.017061877
201,10,0.7,1,3.496503497,6318.304,-7780.416,1182.846802,-687.6358307,-42.016,-3833.128,-301.4563107,-12289.5,1427,-1745.51121,684.5,2827.363167,60.24,65.2813702,59.79246074,65.83,0,-0.052714726,-0.02753926,0.000178099
201,10,0.7,1,4.195804196,7470,-7572,252,-701,156,-4017,-570,-12362,1182,-1771,649,3090,60.24,65.26,59.74765312,65.83461853,0,-0.021370198,-0.04480762,0.004618535
201,10,0.7,1,4.895104895,5566,-8050.074074,-272.7584276,-642.3023464,154.1227627,-3784.590576,-1154,-12288,1330,-1809,709,3269,60.24,65.26,59.70578422,65.88819452,0,0,-0.041868899,0.05357599
201,10,0.7,1,5.594405594,2030,-8937.925926,-687.4903249,-509.6046928,148.6899698,-3289.514485,-1030,-13466,1724,-1823,860,3529,60.24,65.22061752,59.7,65.94277206,0,-0.03938248,-0.005784222,0.054577533
201,10,0.7,1,6.293706294,126,-9416,-856,-368,140,-2835,-516.9763335,-13828.49246,1408.687117,-1877.637562,836.5,3691.697133,60.24,65.11,59.7,65.98,0,-0.11061752,0,0.037227942
201,10,0.7,1,6.993006993,1953,-9199.047687,-525.5457184,-221.0413193,104.1577343,-2532.343181,-96,-13968,956,-1922,813,3843,60.24,65.06606489,59.7,65.98,0,-0.043935109,0,0
201,10,0.7,1,7.692307692,3780,-8732,36,-90,37,-2248,-359.5458349,-13515.85185,672.6303113,-1825.037037,864.577361,4064.821352,60.24,65.02770203,59.69505394,65.98,0,-0.038362865,-0.004946061,0
201,10,0.7,1,8.391608392,3474,-7938,512,-17,-72,-1949,-987.5361142,-12676.14815,434.2040445,-1644.962963,984.3769442,4308.743429,60.24,64.98676549,59.6484022,65.98,0,-0.040936533,-0.04665174,0
201,10,0.7,1,9.090909091,2866.724038,-8168.063091,394,36.12706682,-52.2,-1750.53312,-1736,-12224,334,-1548,1120,4478,60.24,64.93790534,59.64,65.98,0,-0.048860157,-0.008402198,0
201,10,0.7,1,9.79020979,2446,-8448,276,73,-28,-1573,-2859.524605,-12497.4375,586.5,-1600.5,1254.966732,4573.438479,60.24,64.9,59.64,65.98,0,-0.037905336,0,0
201,10,0.7,2,10.48951049,2711,-8534.936909,409.4125921,96.16935484,-20.3,-1375.858055,-4385.688538,-13099,1142,-1716,1410.259409,4653.834203,60.27785874,64.94416853,59.60214126,66.01419499,0.037858742,0.044168532,-0.037858742,0.034194993
201,10,0.7,2,11.18881119,2976,-8572,696,107,-17,-1168,-5730.008202,-13700.5625,1697.5,-1831.5,1589.672382,4709.312826,60.3,64.96422959,59.58,66.06414818,0.022141258,0.020061062,-0.022141258,0.049953185
201,10,0.7,2,11.88811189,2382,-7804,1180,97,-21,-939,-6308,-13974,1950,-1884,1797,4730,60.3,64.90980256,59.58,66.113161,0,-0.05442703,0,0.049012823
201,10,0.7,2,12.58741259,2107.944577,-7971.64521,999,77.72887931,-7.5,-790.4519703,-5874.667492,-12871.14208,1909,-1883.337127,2074.596679,4351.347649,60.3,64.9,59.58,66.12,0,-0.009802565,0,0.006838999
201,10,0.7,2,13.28671329,1990,-8218,818,55,6,-659,-4770,-10862,1868,-1881,2392,3662,60.3,64.9,59.58,66.12,0,0,0,0
201,10,0.7,2,13.98601399,2211,-8384.35479,906,31.0125,-36.5,-507.2207953,-1440,-8774,2506,-1644,2698,2947,60.3,64.94416853,59.54214126,66.17047832,0,0.044168532,-0.037858742,0.050478323
201,10,0.7,2,14.68531469,2432,-8472,994,17,-79,-361,-1744.916248,-6510.648218,1811.272841,-1441.30055,2610.093351,2335.552793,60.3,64.97,59.52,66.2,0,0.025831468,-0.022141258,0.029521677
201,10,0.7,2,15.38461538,2261.745856,-8420.069686,813,26.66,-69.36029412,-231.9374056,-2449.388052,-4354.546331,337.8790151,-1247.515898,2368.631146,1797.219136,60.3,64.97,59.52,66.2,0,0,0,0
201,10,0.7,2,16.08391608,2004,-8310,632,38,-56,-120,-3238,-3394,-998,-1005,2007,1473,60.3,64.97,59.52,66.22087689,0,0,0,0.020876888
201,10,0.7,2,16.78321678,1812.254144,-8082.501094,697,40.22636364,-50.76113445,-26.28592465,-4092,-3526,-1852,-626,1076,1357,60.3,64.97,59.52,66.27433453,0,0,0,0.053457647
201,10,0.7,2,17.48251748,1708,-7898,762,42,-45,48,-2940,-2024,-1824,-313,355,1179,60.3,64.97,59.52,66.31493895,0,0,0,0.040604419
201,10,0.7,2,18.18181818,1736,-7880,596,45,-30,97,-1244,-1232,-850,81,-267,651,60.3,64.96889557,59.52553711,66.37065386,0,-0.001104433,0.005537109,0.055714901
201,10,0.7,2,18.88111888,1736,-8288,534,64,9,172,-694,-1454,48,282,-399,228,60.3,64.95255308,59.57446289,66.46239063,0,-0.016342488,0.048925781,0.091736777
201,10,0.7,2,19.58041958,1795.111111,-8269.333333,585.8518519,74.85301349,-9.460743651,271.1757683,-786.0522573,-2161.192833,195.7770795,554.3163414,-362.3238265,-380.3475875,60.3,64.92569218,59.58,66.55147523,0,-0.026860895,0.005537109,0.089084598
201,10,0.7,2,20.27972028,1904.888889,-8234.666667,682.1481481,83.02127799,-48.81037619,375.593014,-978.548959,-3197.040462,279.5552064,863.2239544,-278.9809863,-1095.045356,60.3,64.9,59.58,66.64,0,-0.025692184,0,0.088524769
201,10,0.7,2,20.97902098,1964,-8216,734,90,-85,435,-1146,-3888,306,1133,-189,-1740,60.29205825,64.87430782,59.56681025,66.72613867,-0.007941746,-0.025692184,-0.013189749,0.08613867
201,10,0.7,2,21.67832168,1282,-8226,484,96,-109,448,-1242,-4090,-20,1329,-100,-2235,60.27246276,64.84744692,59.54059771,66.81221407,-0.019595492,-0.026860895,-0.026212539,0.086075397
201,10,0.7,2,22.37762238,1254.755076,-8256.031533,618.2962963,95.08714597,-103.5555556,439.0820821,-924,-4114,-398,1699,-77,-2764,60.24755814,64.83110443,59.52139745,66.90794496,-0.024904617,-0.016342488,-0.019200267,0.09573089
201,10,0.7,2,23.07692308,1244.914847,-8297.237989,867.7037037,92.61873638,-93.44444444,417.0530531,-1056,-3978,-692,1935,-172,-3033,60.21184016,64.83,59.52,67.02267886,-0.035717985,-0.001104433,-0.001397446,0.114733899
201,10,0.7,2,23.77622378,1222,-8318,1002,89,-88,389,-1320.579163,-4037.143434,-932.8931133,2175.619048,-389.476369,-3323.365864,60.18,64.83,59.52,67.1574559,-0.031840159,0,0,0.134777042
201,10,0.7,2,24.47552448,1000.125766,-8075,927.167992,76.48529412,-94.5,338.9324324,-1524,-4178,-1058,2399,-613,-3617,60.18,64.78214844,59.52,67.30637914,0,-0.047851563,0,0.14892324
201,10,0.7,2,25.17482517,664,-7832,836,66,-101,293,-1550.470291,-4577.614098,-994.2139427,2593.536263,-751.1169591,-3897.480265,60.18,64.76,59.52,67.47355809,0,-0.022148437,0,0.167178954
201,10,0.7,2,25.87412587,404,-8178,814,69,-58,279,-1563.562362,-5264.277353,-855.3167743,2769.808661,-861.7251462,-4173.097049,60.18,64.76,59.52,67.66702876,0,0,0,0.193470672
201,10,0.7,2,26.57342657,772,-7760,1026,50,-66,206,-1588,-5960,-720,2916,-907,-4451,60.15785874,64.73416853,59.54214126,67.74751904,-0.022141258,-0.025831468,0.022141258,0.080490277
201,10,0.7,2,27.27272727,759.2636743,-7860.074074,968.4444444,23.60014098,-77.48743074,126.6400276,-1681.980408,-6653.463537,-590.1759811,3029.813529,-874.7862595,-4745.118138,60.12,64.69,59.58,67.78,-0.037858742,-0.044168532,0.037858742,0.032480958
201,10,0.7,2,27.97202797,724.7495708,-8045.925926,861.5555556,-6.84095515,-91.46375036,44.59379956,-1842,-7200,-514,3123,-827,-5020,60.12,64.73785156,59.58,67.78,0,0.047851563,0,0
201,10,0.7,2,28.67132867,674,-8146,804,-34,-106,-33,-2117.102143,-7476.31835,-566.9615385,3210.00203,-793.7137405,-5252.690302,60.12,64.76,59.58578422,67.78,0,0.022148437,0.005784222,0
201,10,0.7,2,29.37062937,495.7450331,-7974,902,-59.239819,-124.5433071,-99.30752472,-2360,-7620,-676,3270,-776,-5444,60.12,64.76,59.62765312,67.78,0,0,0.041868899,0
201,10,0.7,2,30.06993007,346,-7802,1000,-74,-136,-169,-2432,-7650,-838,3292,-779,-5578,60.0955957,64.73152832,59.66404925,67.73517044,-0.024404297,-0.02847168,0.03639613,-0.044829555
201,10,0.7,2,30.76923077,385.0625,-7834.847476,952.8125,-75.43968245,-132.71875,-260.241825,-2505.926495,-7637,-1029.165344,3306.622295,-779.7327586,-5687.902275,60.06,64.69,59.70526159,67.62040082,-0.035595703,-0.04152832,0.041212344,-0.114769625
201,10,0.7,2,31.46853147,471,-7916.426604,849,-76.05483947,-125.5,-366.470275,-2592,-7624,-1164,3315,-780,-5790,60.06,64.69,59.78057631,67.51724432,0,0,0.075314718,-0.103156502
201,10,0.7,2,32.16783217,556.9375,-8021.292429,745.1875,-76.64257675,-118.28125,-475.7135875,-2716,-7926,-1196,3317,-741,-5893,60.06,64.69,59.83940973,67.45005051,0,0,0.058833418,-0.067193811
201,10,0.7,2,32.86713287,596,-8124,698,-78,-115,-576,-2754.415813,-8371.824705,-1079.972561,3312.453488,-692.8059541,-5973.262935,60.06,64.69,59.87710564,67.4124702,0,0,0.037695909,-0.037580306
201,10,0.7,2,33.56643357,594.4444444,-8249.917093,759.3093767,-90.02801346,-121.7407407,-662.1537037,-2794,-8828,-892,3301,-664,-6029,60.03913849,64.6817475,59.88,67.36580346,-0.020861508,-0.008252504,0.002894362,-0.04666674
201,10,0.7,2,34.26573427,591.5555556,-8386.180769,894.8409757,-116.7173815,-134.2592593,-743.3180463,-2936,-9158,-754,3268,-704,-6054,59.96591034,64.64575768,59.88059841,67.31490595,-0.073228149,-0.03598982,0.000598412,-0.05089751
201,10,0.7,2,34.96503497,590,-8450,1032,-150,-141,-829,-3012,-9698,-702,3203,-798,-6026,59.89568745,64.58957529,59.92285365,67.25621616,-0.07022289,-0.056182386,0.042255241,-0.058689788
201,10,0.7,2,35.66433566,819,-8438.6,1138.148746,-196.3719103,-135.5,-936.465518,-3006,-9914,-792,3157,-916,-5971,59.88,64.50640144,59.94,67.265,-0.015687453,-0.083173849,0.017146346,0.008783838
201,10,0.7,2,36.36363636,1048,-8402,1264,-256,-130,-1025,-2985.868421,-9857,-885.598289,3078.34442,-1095.132328,-5829.324992,59.88,64.35681893,59.94,67.393125,0,-0.149582508,0,0.128125
201,10,0.7,2,37.06293706,956,-7982,1470,-324,-135,-1064,-2970,-9800,-978,2971,-1284,-5609,59.88,64.29583512,59.98061144,67.4,0,-0.060983808,0.040611442,0.006875
201,10,0.7,2,37.76223776,1600,-7760,1302,-348,-159,-1071,-3079.598799,-9900.405724,-1083.370045,2830.506674,-1451.044349,-5301.793485,59.88,64.27,60.06,67.4,0,-0.025835124,0.079388558,0
201,10,0.7,2,38.46153846,1541.407407,-7883.925926,1061.438903,-355.5419156,-184.2580297,-1039.62963,-3342.530931,-10096.367,-1185.907245,2658.037433,-1604.188698,-4908.324725,59.84777344,64.31785156,60.09893971,67.4,-0.032226563,0.047851563,0.038939706,0
201,10,0.7,2,39.16083916,1432.592593,-8114.074074,803.3627365,-359.9064592,-209.0099456,-981.3703704,-3660,-10230,-1232,2477,-1701,-4510,59.8021875,64.34,60.1378125,67.4,-0.045585938,0.022148438,0.038872794,0
201,10,0.7,2,39.86013986,1374,-8238,674,-367,-227,-950,-4078,-10264,-1212,2289,-1739,-4131,59.76175781,64.34,60.17824219,67.4,-0.040429687,0,0.040429687,0
201,10,0.7,2,40.55944056,1476,-8235.347826,665.066856,-383.2956837,-234.6601894,-968.838843,-4836,-10066,-1124,1938,-1671,-3529,59.78735599,64.37191533,60.15264401,67.32705068,0.025598182,0.031915327,-0.025598182,-0.072949318
201,10,0.7,2,41.25874126,1578,-8226,656,-415,-245,-997,-5267.590331,-9862.252245,-1193,1622.510023,-1572.038732,-3005.113048,59.81932617,64.40685547,60.12008893,67.24045906,0.031970178,0.034940142,-0.032555071,-0.086591621
201,10,0.7,2,41.95804196,1298,-7302,606,-512,-330,-1013,-5598,-9592,-1262,1336,-1448,-2495,59.77391602,64.19494141,60.12948156,67.28617424,-0.045410156,-0.211914063,0.009392629,0.04571518
201,10,0.7,2,42.65734266,1089.07874,-7816.709497,722,-526.9878587,-365.0374144,-1024.548343,-5961.027149,-9013.577773,-1178,1082.953982,-1285.334766,-1937.39464,59.76,64.14159482,60.14989348,67.37413001,-0.013916016,-0.053346586,0.020411913,0.087955767
201,10,0.7,2,43.35664336,984,-8346,838,-539,-382,-1041,-6162,-8302,-1094,850,-1122,-1393,59.76,64.19280745,60.17498005,67.45785299,0,0.051212635,0.025086576,0.083722985
201,10,0.7,2,44.05594406,1143,-8361.719706,819,-571.3496301,-385.0888575,-1157.712851,-6084.124346,-7683.923991,-1218.81788,630.1239481,-976.2186627,-913.9414985,59.75113115,64.22365715,60.21292748,67.51881688,-0.008868854,0.030849692,0.037947431,0.060963885
201,10,0.7,2,44.75524476,1302,-8376,800,-615,-389,-1262,-5902.693137,-7087.810481,-1505.857982,419.8416852,-845.6093314,-463.1301278,59.72592036,64.2505408,60.24,67.55,-0.025210786,0.026883654,0.027072517,0.031183122
201,10,0.7,2,45.45454545,856,-8442,1232,-662,-950,-1261,-5696,-6562,-1824,207,-789,1,59.70371483,64.26752945,60.24,67.55,-0.022205526,0.016988646,0,0
201,10,0.7,2,46.15384615,3110,-10582,1436,-701,-1124,-1233,-5462,-6142,-2160,-14,-790,501,59.7,64.25539589,60.24885406,67.56213108,-0.003714834,-0.012133559,0.008854061,0.012131081
201,10,0.7,2,46.85314685,885,-10444.29937,989.0521162,-726.6123408,-739,-1431.624743,-5348,-7088,-2448,-181,-842,800,59.7,64.20267861,60.29220843,67.62009974,0,-0.052717281,0.043354366,0.057968655
201,10,0.7,2,47.55244755,-1340,-10188,422,-755,-354,-1673,-5496,-14618,-3178,-485,-1058,1260,59.67264401,64.2,60.33526969,67.67176348,-0.027355994,-0.002678608,0.043061266,0.051663749
201,10,0.7,2,48.25174825,-928.0704677,-9841.986308,198.5740156,-814.6645807,-452,-1733.513175,-10756,-22178,-3400,-952,-1849,1857,59.64016195,64.2,60.36,67.7,-0.032482056,0,0.024730307,0.028236515
201,10,0.7,2,48.95104895,-114.3631577,-9447.882043,35.28700779,-896.9173967,-634,-1770.581218,-10030,498,-776,-274,-2144,2201,59.65555556,64.2,60.36,67.7,0.015393605,0,0,0
201,10,0.7,3,49.65034965,468,-9260,-28,-971,-732,-1824,-8702.145594,-5168,1101.236812,-335.0558331,-1857.891944,2666.380835,59.68196844,64.2,60.37251781,67.65884337,0.026412889,0,0.01251781,-0.041156629
201,10,0.7,3,50.34965035,631.6721348,-10309,438.0088462,-1021.446237,-597,-1941.513075,-6704,-10834,2032,-474,-1302,2953,59.69936556,64.2,60.41770405,67.4890436,0.017397112,0,0.045186241,-0.169799768
201,10,0.7,3,51.04895105,808,-11358,1094,-1075,-462,-2085,-2447.353346,-10049.22759,1969.256498,-875.5301999,-443.340247,2693.740741,59.7,64.2,60.42,67.43374687,0.000634444,0,0.00229595,-0.055296735
201,10,0.7,3,51.74825175,1396,-11070,1396,-1159,-510,-2209,3038.767772,-8541.344066,1749.624107,-1459.653732,586.0520987,2212.259259,59.7,64.20069815,60.42213233,67.38593251,0,0.000698148,0.002132328,-0.04781436
201,10,0.7,3,52.44755245,827,-11012.23831,923,-1153,-489.5,-2431.304238,5756,-7580,1326,-1763,1085,1953,59.7,64.22000407,60.46884053,67.28306551,0,0.019305923,0.046708199,-0.102867001
201,10,0.7,3,53.14685315,258,-10992,450,-1138,-469,-2680,5034,-7408,-6270,-1768,431,2422,59.7,64.24999593,60.50318636,67.21055677,0,0.029991858,0.034345838,-0.072508733
201,10,0.7,3,53.84615385,514,-11002,1114,-1096,-554,-2873,968,-7366,-7056,-1378,-342,2656,59.7,64.26930185,60.52766313,67.1627697,0,0.019305923,0.024476761,-0.047787074
201,10,0.7,3,54.54545455,552,-11470,1594,-1100,-693,-3041,-2144.74258,-7145.091168,-4546.37037,-1374.268081,-107.1111111,2749.30894,59.7,64.27,60.54499708,67.1225527,0,0.000698148,0.017333951,-0.040217002
201,10,0.7,3,55.24475524,58,-12487.23722,1147.301268,-1151.190702,-643,-3250.532116,-4730.482401,-6802.10114,114.3703704,-1372.984594,329.1111111,2812.043359,59.7,64.27670076,60.55,67.08182113,0,0.006700759,0.005002923,-0.040731565
201,10,0.7,3,55.94405594,-436,-13210,622,-1199,-593,-3472,-5810,-6624,2624,-1370,564,2835,59.7,64.42016689,60.55,67.04445417,0,0.143466134,0,-0.037366965
201,10,0.7,3,56.64335664,-54,-12206,520,-1145,-624,-3678,-4431.259259,-7067.851852,1327.185185,-1312.71394,501.5734266,2724.112913,59.7,64.51143257,60.55,66.98024279,0,0.09126568,0,-0.064211382
201,10,0.7,3,57.34265734,766,-11820,458,-1144,-722,-3779,-1870.740741,-7892.148148,-1081.185185,-1178.240099,363.8135198,2504.781382,59.7,64.54959066,60.55,66.87839179,0,0.038158085,0,-0.101850991
201,10,0.7,3,58.04195804,859.8675874,-11639.1663,520,-1096.557531,-934.2970373,-3902.964711,-492,-8336,-2378,-1007,225,2347,59.7,64.55,60.55,66.80026152,0,0.000409342,0,-0.078130277
201,10,0.7,3,58.74125874,946,-11470,582,-1050,-1085,-4065,-1522.964635,-8001,-1756.703738,-682.0551579,80.3548951,2305.566675,59.7,64.55052979,60.55,66.72942711,0,0.000529785,0,-0.070834409
201,10,0.7,3,59.44055944,1618.771095,-11086.00299,244,-1074.712578,-1021.5,-4406.576174,-2938,-7666,-546,-421,-7,2253,59.7,64.59342529,60.55,66.66727604,0,0.042895508,0,-0.062151065
201,10,0.7,3,60.13986014,2628,-10816,-94,-1132,-958,-4652,-3530,-8436,984,-392,171,1839,59.7,64.64657471,60.55,66.61639159,0,0.053149414,0,-0.050884459
201,10,0.7,3,60.83916084,3644.377026,-11551.25926,491.4074074,-1315.992455,-967.7333333,-4625.871338,-2784,-7940,1220,-418,240,1706,59.7,64.68947021,60.55,66.57446646,0,0.042895508,0,-0.041925121
201,10,0.7,4,61.53846154,4656.632957,-12916.74074,1578.592593,-1589.440672,-997.4666667,-4555.742676,-2088,-7982,-126,-358,177,1592,59.66735599,64.69,60.55,66.51744054,-0.032644006,0.000529785,0,-0.057025926
201,10,0.7,4,62.23776224,5116,-13652,2164,-1730,-1048,-4454,-1800,-8288,-986,-239,100,1518,59.64,64.69,60.55,66.49,-0.027355994,0,0,-0.027440538
201,10,0.7,4,62.93706294,4348,-13036,1952,-1710,-1286,-4221,-2032.8125,-8235.1875,-642.25,-149.1860465,62.32224612,1397.52228,59.64,64.69,60.55,66.49,0,0,0,0
201,10,0.7,4,63.63636364,2382,-10522,2412,-1589,-1576,-3688,-2545,-8119,114,-66.72093023,32.20310766,1237.902324,59.65714635,64.70688898,60.55,66.49,0.017146346,0.016888978,0,0
201,10,0.7,4,64.33566434,1090.326152,-7825.389096,2416.673854,-1460.711414,-2010.466383,-2717.276954,-3057.1875,-8002.8125,870.25,-6.395348837,12.23241537,1059.581206,59.69940159,64.75728806,60.55,66.49,0.042255241,0.050399077,0,0
201,10,0.7,4,65.03496503,468,-5896,2418,-1334,-2287,-2058,-3290,-7950,1214,17,5,883,59.7,64.77672519,60.55,66.52669254,0.000598412,0.019437132,0,0.036692545
201,10,0.7,4,65.73426573,2140,-5273.984939,870,-1229.309893,-1750.360142,-2054.385591,-3156.615385,-8021.70122,932,6.5,28.5,702.2807122,59.7,64.78906924,60.55,66.57577152,0,0.012344056,0,0.049078973
201,10,0.7,4,66.43356643,3812,-4800,-678,-1105,-857,-2051,-2882,-8126,650,-4,52,527,59.7,64.79889794,60.55,66.59738335,0,0.009828698,0,0.021611829
201,10,0.7,4,67.13286713,2954.37037,-4034.810211,-525.896071,-851.2630563,-8.40930337,-1846.374739,-2474,-8180,662,14,52,382,59.7,64.81040354,60.55,66.61440279,0,0.011505603,0,0.017019446
201,10,0.7,4,67.83216783,1361.62963,-3231.84955,-153.792142,-509.2308228,838.998793,-1380.535542,-2526,-8256,722,-9,12,280,59.7,64.82777832,60.55,66.63703515,0,0.017374772,0,0.022632358
201,10,0.7,4,68.53146853,504,-2860,312,-228,1278,-856,-2783.918455,-8193.555147,700.3059701,-24.48076923,10.40385128,164.1456993,59.7,64.86310038,60.55,66.67943555,0,0.035322063,0,0.042400401
201,10,0.7,4,69.23076923,509.1350711,-3462.538649,1179.63308,-65.30535843,1359.264083,-301.9223604,-3002,-8098,646,-32,9,57,59.69742188,64.90950601,60.55,66.72994858,-0.002578125,0.046405634,0,0.050513026
201,10,0.7,4,69.93006993,526,-4390,1812,88,1391,350,-2639,-8042.186575,399.6940299,-11.34156977,-18.20982143,-16.65957023,59.649375,64.96224529,60.55,66.78246206,-0.048046875,0.052739279,0,0.052513481
201,10,0.7,4,70.62937063,776,-4970,1268,296,1323,1112,-2276,-7984,186,29,-44,-90,59.64,64.97,60.55,66.77786753,-0.009375,0.007754708,0,-0.004594525
201,10,0.7,4,71.32867133,776,-5200,818,405,1273,1623,-2673,-7872.258278,192.9424084,89.7513442,-43.46153846,-200.8029643,59.64,64.97,60.55,66.72578686,0,0,0,-0.052080672
201,10,0.7,4,72.02797203,1015.847909,-4927.37789,574.5154694,536.8404422,1147.918674,2235.471743,-3070,-7796,212,140,-42,-309,59.6755957,64.99891108,60.55,66.62111463,0.035595703,0.028911085,0,-0.10467223
201,10,0.7,4,72.72727273,1384,-4482,372,694,998,2857,-2427,-7879,396.0575916,152.0005309,-29.53846154,-388.6426721,59.69505394,65.06052001,60.54505394,66.57332235,0.019458235,0.06160893,-0.004946061,-0.047792277
201,10,0.7,4,73.42657343,1670.152091,-4062.62211,83.99365701,900.0236457,897.6217969,3400.356101,-1784,-7962,568,162,-18,-442,59.6484022,65.15048531,60.4984022,66.61706345,-0.04665174,0.089965298,-0.04665174,0.043741095
201,10,0.7,4,74.12587413,1828,-3816,-94,1125,787,3921,-1824,-7952,392,181,-39,-463,59.64,65.20836929,60.49,66.68451074,-0.008402198,0.057883977,-0.008402198,0.06744729
201,10,0.7,4,74.82517483,1615.123824,-3910.554252,-99.96624473,1337.255193,603.6997647,4445.599328,-1438,-8206,362,203,-1,-473,59.64,65.25336753,60.49,66.78075952,0,0.04499824,0,0.096248781
201,10,0.7,4,75.52447552,1368,-4124,-102,1538,372,4961,-1283.355246,-7978,554.4775087,215.9704797,-19.5,-437.3398437,59.64,65.37410919,60.44847168,66.88072901,0,0.120741665,-0.04152832,0.099969485
201,10,0.7,4,76.22377622,1320.392536,-4603.809769,-93.18518519,1720.652305,87.77955085,5482.545487,-1152,-7750,800,222,-38,-371,59.64,65.50217969,60.42,66.95938706,0,0.128070492,-0.02847168,0.078658055
201,10,0.7,4,76.92307692,1293.115271,-5344.208653,-76.81481481,1891.60466,-226.6547314,5995.068143,-888.6666667,-7980,896.5224913,212.4395604,-26.37878788,-301.2647139,59.64,65.5976957,60.42,67.01332224,0,0.095516011,0,0.05393518
201,10,0.7,4,77.62237762,1254,-6010,-68,2049,-474,6443,-712,-8210,940,193,-12,-217,59.64,65.58155905,60.42,66.94653033,0,-0.016136652,0,-0.066791914
201,10,0.7,4,78.32167832,1185.716684,-6457.922715,-99.67660343,2196.031855,-658.5702872,6814.671896,-764.1809045,-8209.560554,931,166.6180197,-8.823914824,-104.3096075,59.64,65.47,60.42,66.72,0,-0.111559046,0,-0.226530326
201,10,0.7,4,79.02097902,1084.82693,-6853.786299,-170.9087624,2332.398503,-811.3406992,7142.93459,-888,-8208,922,131,-5,2,59.67497942,65.27866055,60.39374524,66.57172032,0.034979424,-0.191339455,-0.026254764,-0.14827968
201,10,0.7,4,79.72027972,940,-7326,-246,2451,-875,7439,-1176,-7848,1448,84,23,65,59.7,65.18204545,60.35201122,66.47806316,0.025020576,-0.096615091,-0.041734014,-0.093657163
201,10,0.7,4,80.41958042,630,-8006,-316,2545,-826,7696,-1165,-7950,1437.992958,7.675094145,64.59726767,130.4765394,59.7,65.23318182,60.30672488,66.4359391,0,0.051136364,-0.045286338,-0.04212406
201,10,0.7,4,81.11888112,566.3746464,-8733.799648,-685.8103691,2599.121468,-627.0761532,7871.40427,-1154,-8052,1420,-71,110,207,59.71545699,65.31414799,60.3,66.39397183,0.015456992,0.080966172,-0.006724885,-0.041967269
201,10,0.7,4,81.81818182,520,-9372,-1094,2638,-277,7957,-1224,-7702,1402,-124,149,317,59.76,65.4,60.3,66.35,0.044543008,0.08585201,0,-0.043971828
201,10,0.7,4,82.51748252,418.3035714,-9838.557219,-1263.725586,2673.540816,275.2682518,7939.460322,-1052,-7564.476127,1224.532538,-169.7281686,114,453.2712963,59.77980855,65.43254593,60.26214126,66.30247484,0.019808548,0.032545929,-0.037858742,-0.047525157
201,10,0.7,4,83.21678322,350,-10166,-1340,2692,952,7900,-880,-7508,1062,-214,79,582,59.79421337,65.45637894,60.24,66.2552933,0.014404825,0.023833007,-0.022141258,-0.04718154
201,10,0.7,4,83.91608392,510,-10332,-1124,2664,1592,7823,-890.0330688,-7677.037037,1065.111111,-263.3715326,104.386064,676.5750279,59.81093408,65.46881654,60.24,66.20664143,0.016720706,0.012437608,0,-0.048651876
201,10,0.7,4,84.61538462,1148,-10574,-1100,2612,2561,7555,-916.510582,-7990.962963,1070.888889,-313.7166305,156.4387947,757.4426736,59.83974814,65.47,60.20203125,66.2,0.028814065,0.001183456,-0.03796875,-0.006641428
201,10,0.7,4,85.31468531,1456,-10432,-972,2578,3048,7390,-954,-8160,1074,-357,199,832,59.88,65.47,60.12,66.2,0.040251856,0,-0.08203125,0
201,10,0.7,4,86.01398601,2494.72594,-10743.8155,-411.1083419,2472.363522,3174.316163,7180.983164,-1020.671801,-8142.130206,1037.185185,-391.2284343,225.2278719,899.7262629,59.91521559,65.50025408,60.12,66.14952168,0.035215593,0.030254081,0,-0.050478323
201,10,0.7,4,86.71328671,3904,-11190,222,2284,3221,6927,-1142.998364,-8095.371524,968.8148148,-420.9630414,246.9472693,962.4295117,59.95274102,65.56521993,60.11612533,66.12,0.037525426,0.064965854,-0.003874669,-0.029521677
201,10,0.7,4,87.41258741,5090,-11408,476,1933,2709,6593,-1328,-8030,932,-448,256,1031,59.99612533,65.67878273,60.07274102,66.12,0.043384312,0.113562791,-0.043384312,0
201,10,0.7,4,88.11188811,5520,-11512,424,1689,2201,6356,-1802,-7898,1012,-472,234,1114,60,65.69,60.02904824,66.09416853,0.003874669,0.011217275,-0.043692775,-0.025831468
201,10,0.7,4,88.81118881,5868.019737,-11457.6448,239.1595726,1426.089871,1543.140996,6006.431217,-1879.039283,-7756.559557,862.9111038,-502.1621148,260.3598266,1131.0138,60,65.69,60,66.05,0,0,-0.029048244,-0.044168532
201,10,0.7,4,89.51048951,6048,-11312,-40,1162,894,5522,-1942,-7676,634,-525,292,1137,60.03785874,65.73416853,60,66.05,0.037858742,0.044168532,0,0
201,10,0.7,4,90.20979021,5966,-10774,-346,914,411,4740,-2116,-8092,492,-532,299,1094,60.06,65.76,60.00553711,66.05,0.022141258,0.025831468,0.005537109,0
201,10,0.7,4,90.90909091,5884,-10520,-644,800,175,4208,-2092.565072,-8301.427449,541.8367347,-546.4919674,312.4420224,1107,60.06,65.76,60.05446289,66.05,0,0,0.048925781,0
201,10,0.7,4,91.60839161,5693.642857,-9880.529399,-684.7860352,698.5137925,-6.657458564,3439.048017,-2024,-8394,640,-570,336,1120,60.06695384,65.77738459,60.01571748,66.03136377,0.006953836,0.01738459,-0.038745406,-0.018636227
201,10,0.7,4,92.30769231,5556,-9146,-720,595,-99,2575,-1632,-8066,768,-614,395,1116,60.09136322,65.83840805,59.94,65.98,0.024409383,0.061023458,-0.075717484,-0.051363773
201,10,0.7,4,93.00699301,5568.595834,-8659.779543,-935.0079212,473.3169609,-35.09302326,1718.829149,-2238,-8416,878,-637,343,1157,60.11477085,65.89692712,59.94,65.9261807,0.02340763,0.058519075,0,-0.053819298
201,10,0.7,4,93.70629371,5608.747224,-8243.529495,-1268.726183,342.0609962,100.8139535,860.2192208,-2066,-8179,833,-673.2318982,405.4612903,1207.78745,60.12,65.91,59.94,65.91,0.005229151,0.013072878,0,-0.016180702
201,10,0.7,4,94.40559441,5680,-7832,-1442,214,225,105,-1894,-7942,788,-717,477,1256,60.12,65.91,59.94,65.91,0,0,0,0
201,10,0.7,4,95.1048951,6134,-7406,-1330,95,306,-484,-2037.567308,-7944.046243,888,-769.234096,487.131101,1289.343934,60.13371094,65.89363636,59.94,65.91,0.013710938,-0.016363636,0,0
201,10,0.7,4,95.8041958,6444.154377,-6759.537025,-1241.493291,-107.7675335,209.5555556,-1110.941192,-2272,-7950,988,-812,498,1321,60.18,65.83,59.94,65.91,0.046289062,-0.063636364,0,0
201,10,0.7,4,96.5034965,6691.1883,-6054.879624,-1155.266152,-338.8282112,30.44444444,-1735.045436,-2492.432692,-8050.964755,799,-828.2542571,629.696864,1369.965517,60.22628906,65.72534801,59.89898438,65.95785156,0.046289063,-0.104651989,-0.041015625,0.047851563
201,10,0.7,4,97.2027972,6792,-5724,-1012,-449,-66,-2229,-2622,-8288,610,-845,799,1401,60.24,65.69,59.88,65.98,0.013710938,-0.035348011,-0.018984375,0.022148437
201,10,0.7,4,97.9020979,6260,-5874.37037,-280.2788124,-323,31.48148148,-2625.789103,-1810,-9284.573041,768.6666667,-894.5798393,893.0042868,1398.925926,60.24,65.69,59.88,65.98,0,0,0,0
201,10,0.7,4,98.6013986,5272,-6153.62963,985.9589172,-89,212.5185185,-2957.838996,-302,-10842.0643,1063.333333,-972.065128,968.2243656,1395.074074,60.26214126,65.64909129,59.88,65.98,0.022141258,-0.040908708,0,0
201,10,0.7,4,99.3006993,4740,-6304,1968,37,310,-3097,510,-11652,1222,-1047,999,1393,60.3,65.54,59.88,65.98,0.037858742,-0.109091292,0,0
201,10,0.7,4,100,7112,-4086,2402,-361,-158,-2814,117.6784409,-10542,393,-1100.881694,921,1681.425026,60.3,65.45101666,59.84214126,66.01388962,0,-0.088983337,-0.037858742,0.033889618
201,10,0.7,1,0,-1212,-13322,4200,-315,-1254,-2620,-472,-9432,-436,-1168,843,2067,60.3,65.38425747,59.82,66.06273171,0,-0.066759191,-0.022141258,0.048842092
201,10,0.7,1,0.689655172,-7932,-7684,2330,-575,-2157,-2777,-900.6784409,-10305.00512,164.7843289,-1331.166625,929.5,2208.80118,60.3,65.34252096,59.82,66.10623737,0,-0.041736517,0,0.043505656
201,10,0.7,1,1.379310345,-8332,-5624,-1812,-853,-1382,-3048,-1132,-11524,1078,-1519,1016,2340,60.3,65.29183838,59.7955957,66.162875,0,-0.050682576,-0.024404297,0.056637634
201,10,0.7,1,2.068965517,-4712,-6694,-4016,-824,716,-3214,-783,-12213.99488,1766.215671,-1657.57947,928.5,2560.774058,60.3,65.26,59.76,66.2,0,-0.031838379,-0.035595703,0.037125
201,10,0.7,1,2.75862069,142,-8678,-2634,-495,1640,-3711,-434,-12558,2142,-1750,841,2813,60.3,65.26,59.76,66.2,0,0,0,0
201,10,0.7,1,3.448275862,4412,-6506,-340,-308,909,-4336,-681.9191784,-11944,1682.417916,-1781.864749,948.4226437,3056.718313,60.3,65.25205939,59.7515978,66.2,0,-0.00794061,-0.008402198,0
201,10,0.7,1,4.137931034,4842.008516,-6906.284855,-420,-581,-79.38402733,-3875.5,-1140,-11330,1148,-1809,1092,3284,60.3,65.19581708,59.70494606,66.2,0,-0.05624231,-0.04665174,0
201,10,0.7,1,4.827586207,4978,-7534,-500,-854,-688,-3415,-1636,-12318,1052,-1857,1146,3467,60.3,65.14879948,59.7,66.22066332,0,-0.047017605,-0.004946061,0.020663319
201,10,0.7,1,5.517241379,3876.148148,-8048.826925,-346.9135802,-697.6666667,-448.4444444,-3444.296296,-1301,-12934.2054,1012.235057,-1908.020408,1122,3614.343278,60.29940159,65.10577765,59.69940159,66.2745621,-0.000598412,-0.043021822,-0.000598412,0.053898781
201,10,0.7,1,6.206896552,1829.851852,-8528.413462,72.83950617,-407.3333333,-3.555555556,-3498.703704,-966,-13226,970,-1937,1098,3769,60.25714635,65.06484984,59.65714635,66.32196241,-0.042255241,-0.040927808,-0.042255241,0.047400306
201,10,0.7,1,6.896551724,728,-8740,700,-251,236,-3528,-1048.47649,-12923.01664,812.5991537,-1876.074074,1128.883922,3972.865621,60.249375,65.02369119,59.64,66.37113618,-0.007771346,-0.041158655,-0.017146346,0.049173769
201,10,0.7,1,7.586206897,4078,-7520,2300,-439,-57,-3142,-1278.952979,-12304.47773,566.5868697,-1762.925926,1208.656734,4213.703887,60.29742188,64.98060768,59.64,66.41798373,0.048046875,-0.043083513,0,0.04684755
201,10,0.7,1,8.275862069,3482.524761,-7625,1509.825725,-495.4202746,-182.9327725,-2761.061697,-1632,-11806,376,-1702,1318,4481,60.3,64.89786699,59.64,66.39694564,0.002578125,-0.082740682,0,-0.021038084
201,10,0.7,1,8.965517241,2506,-7730,290,-517,-236,-2519,-2957.328076,-11512.68961,263.2845304,-1734.917598,1559.593307,4830.195801,60.3,64.83,59.64,66.35,0,-0.067866995,0,-0.046945642
201,10,0.7,1,9.655172414,1762,-7712,-480,-393,-157,-2475,-4580,-11366,208,-1793,1818,5130,60.3,64.8624707,59.61216797,66.3167622,0,0.032470703,-0.027832031,-0.033237796
201,10,0.7,2,10.34482759,2371,-7766.660508,-158.337904,-266.1281534,-103.8269231,-2357.74184,-5376,-13626,1388,-1848,1933,5261,60.3,64.92570313,59.55796875,66.28657544,0,0.063232422,-0.054199219,-0.03018676
201,10,0.7,2,11.03448276,2980,-7906,392,-195,-78,-2170,-6424,-14098,2140,-1878,1995,5084,60.3,64.96842773,59.52134766,66.27053439,0,0.042724609,-0.036621094,-0.01604105
201,10,0.7,2,11.72413793,2882,-8326,868,-239,-151,-1886,-6210.309313,-13592.90384,2172.453614,-1946.596386,2214.41732,4638.700764,60.3,64.97,59.52,66.29772074,0,0.001572266,-0.001347656,0.027186347
201,10,0.7,2,12.4137931,2646,-8410,534,-239,-146,-1739,-5630,-12510,2202,-1996,2535,4057,60.30059841,64.97047018,59.52,66.35458878,0.000598412,0.000470181,0,0.056868037
201,10,0.7,2,13.10344828,2708.130137,-8340.397004,261.3903416,-186.7570093,-101.9320541,-1557.368045,-3356,-10692,2456,-1942,2857,3527,60.34285365,65.00965194,59.52,66.40601425,0.042255241,0.039181763,0,0.05142547
201,10,0.7,2,13.79310345,2834,-8208,120,-109,-61,-1363,34,-8108,2764,-1673,3034,2707,60.36,65.05637985,59.52,66.42,0.017146346,0.046727904,0,0.013985752
201,10,0.7,2,14.48275862,3063.869863,-8010.602996,250.15625,-62.64299065,-59.51149425,-1178.196457,1450,-5760,2766,-1378,3041,1896,60.36,65.09739054,59.52,66.42,0,0.041010696,0,0
201,10,0.7,2,15.17241379,3230,-7876,460,-25,-59,-986,-3284,-4350,-464,-1172,2295,1764,60.36,65.1398318,59.5444043,66.44043262,0,0.042441257,0.024404297,0.020432617
201,10,0.7,2,15.86206897,3121,-7894.333333,649.84375,11.15438596,-66.265625,-766.5744594,-2994.672,-3602.923318,-434.3336401,-921.0017371,1630.05968,1542.340075,60.36,65.185,59.58,66.49473512,0,0.045168199,0.035595703,0.054302507
201,10,0.7,2,16.55172414,3012,-7920,760,31,-74,-546,-2304.736,-2961.988733,-363.1609204,-639.2404631,954.03714,1237.501532,60.36,65.24645833,59.58,66.54577501,0,0.061458333,0,0.051039883
201,10,0.7,2,17.24137931,3072.288344,-7934.666667,595.2335165,31.46869096,-74.734375,-348.0589893,-1481.264,-2461.592489,-277.2213805,-339.6783205,358.18476,865.2929519,60.34748219,65.24330959,59.56748219,66.59003768,-0.01251781,-0.003148747,-0.01251781,0.044262677
201,10,0.7,2,17.93103448,3136,-7942,360,32,-75,-161,-791.328,-2136.13083,-203.2545605,-35.277452,-66.24508,441.5229146,60.30229595,65.18306127,59.52229595,66.62951688,-0.045186241,-0.060248321,-0.045186241,0.039479192
201,10,0.7,2,18.62068966,3140,-7834,246,72,-38,16,-502,-2020,-168,261,-228,-18,60.3,65.18,59.52,66.70339396,-0.00229595,-0.003061266,-0.00229595,0.073877088
201,10,0.7,2,19.31034483,2982,-8104,256,89,-15,97,-881.5555556,-2844.444444,-161.784333,546.8805904,-179.5185185,-614.3873685,60.3,65.17930185,59.52,66.79870516,0,-0.000698148,0,0.095311199
201,10,0.7,2,20,3167,-7970.163586,436.3178629,102.2415254,-21.44117647,233.5680159,-1586.444444,-4375.555556,-157.5588332,833.4978278,-89.48148148,-1330.021519,60.3,65.13000407,59.52,66.88168795,0,-0.049297781,0,0.082982791
201,10,0.7,2,20.68965517,3352,-7746,782,109,-39,409,-1966,-5200,-156,1128,-41,-1971,60.290625,65.11,59.52,66.98981967,-0.009375,-0.020004071,0,0.108131715
201,10,0.7,2,21.37931034,2862,-7564,1252,94,-109,616,-1710,-4731.035891,-478.7196314,1452.466323,-47.81588287,-2485.181529,60.24257813,65.11,59.52,67.1405033,-0.048046875,0,0,0.150683631
201,10,0.7,2,22.06896552,2497.23948,-7738.052463,784,87.65909091,-129.3,688.9079024,-1454,-4130,-922,1752,-68,-2908,60.24,65.075,59.52,67.28665993,-0.002578125,-0.035,0,0.146156629
201,10,0.7,2,22.75862069,2142,-7974,316,85,-137,737,-1570,-3942,-1108,1969,-192,-3207,60.24,65.04,59.52,67.42663413,0,-0.035,0,0.139974202
201,10,0.7,2,23.44827586,1696,-8068,330,126,-125,781,-1834,-3980,-1412,2283,-405,-3578,60.24,65.04,59.52,67.55254898,0,0,0,0.125914849
201,10,0.7,2,24.13793103,1471.455143,-8230.431081,560.6764129,104.5,-99.91566034,762.766055,-1984,-4190,-1462,2466,-537,-3810,60.230625,65.0290625,59.52,67.68802361,-0.009375,-0.0109375,0,0.13547463
201,10,0.7,2,24.82758621,1312,-8376,788,83,-69,731,-1836,-4760,-1288,2700,-707,-4141,60.18257813,64.97300781,59.52,67.85347534,-0.048046875,-0.056054687,0,0.165451728
201,10,0.7,2,25.51724138,1150.329114,-8449.990385,797.5162726,105.5,-34.56306306,705.9606656,-1789.648896,-5304.309398,-1126.765933,2857.117511,-766.4949455,-4410.95226,60.18,64.97,59.52,68.00796957,-0.002578125,-0.003007813,0,0.154494226
201,10,0.7,2,26.20689655,1064,-8484,806,128,-14,672,-1760.268893,-5833.537495,-979.7590295,2985.353581,-805.1919172,-4654.51513,60.18,64.96817627,59.52,68.1025821,0,-0.001823733,0,0.094612536
201,10,0.7,2,26.89655172,1195,-8111.790068,859.8135593,112.625,-22.14925373,581.7587866,-1750,-6350,-890,3115,-819,-4905,60.18,64.92486261,59.52,68.14858415,0,-0.043313658,0,0.046002045
201,10,0.7,2,27.5862069,1326,-7696,906,87,-38,484,-2068,-6848,-858,3257,-793,-5178,60.18,64.87513739,59.52,68.19841441,0,-0.049725219,0,0.049830265
201,10,0.7,2,28.27586207,1121.429577,-7625.209932,846.9792388,67.59410112,-63.35074627,441.9859213,-2191.783146,-7007.410122,-902.2983508,3340.902429,-754.9980695,-5410.04384,60.18,64.83182373,59.52,68.24791573,0,-0.043313658,0,0.049501323
201,10,0.7,2,28.96551724,774,-7598,758,46,-81,396,-2270,-7122,-984,3401,-731,-5599,60.15264401,64.83,59.54010621,68.22787986,-0.027355994,-0.001823733,0.020106213,-0.02003587
201,10,0.7,2,29.65517241,480,-8686,706,16,-76,276,-2328,-7264,-1072,3443,-735,-5727,60.12,64.83,59.5836511,68.16137157,-0.032644006,0,0.04354489,-0.066508294
201,10,0.7,2,30.34482759,838,-8158,918,-8,-76,168,-2396,-7416,-1228,3478,-798,-5866,60.12,64.83,59.62112913,67.99393667,0,0,0.037478023,-0.167434902
201,10,0.7,2,31.03448276,698,-8152.622746,1039.832947,-40.14449541,-94.40361446,65.21731624,-2374,-7542,-1278,3490,-852,-5938,60.12,64.83,59.66008379,67.90116554,0,0,0.038954666,-0.092771126
201,10,0.7,2,31.72413793,558,-8148,1096,-72,-123,-34,-2430.871302,-7782.132137,-1245.8125,3488.262266,-933.2783812,-5995.493471,60.12,64.83,59.69734128,67.86317939,0,0,0.037257492,-0.037986156
201,10,0.7,2,32.4137931,767,-8022.597656,1055.15493,-94.2576785,-146.0963855,-125.1163683,-2569.656805,-8122.232962,-1175,3483.03271,-1038.484887,-6049.410864,60.08735599,64.80114797,59.71831196,67.83641067,-0.032644006,-0.028852025,0.020970677,-0.02676872
201,10,0.7,2,33.10344828,976,-7902,980,-117,-159,-223,-2742.613905,-8490.217306,-1104.1875,3474.286799,-1165.19895,-6089.372824,60.06,64.75176471,59.73310016,67.81649468,-0.027355994,-0.049383269,0.014788201,-0.019915989
201,10,0.7,2,33.79310345,645,-8098.247598,878.8450704,-148.7516722,-141.5,-354.8550966,-2902,-8814,-1072,3462,-1311,-6105,60.06,64.71058824,59.74917394,67.79454128,0,-0.041176471,0.016073781,-0.021953393
201,10,0.7,2,34.48275862,314,-8336,812,-187,-124,-493,-3042,-9070,-1116,3419,-1512,-6042,60.04748219,64.66513739,59.77860527,67.75519297,-0.01251781,-0.045450845,0.029431328,-0.039348311
201,10,0.7,2,35.17241379,533.1555946,-8391.05755,910,-237.8697979,-126.7897964,-633.6894006,-3371.382024,-9115.582883,-1122.525605,3329.738822,-1615.530451,-5938.632908,60.00229595,64.62182373,59.81821134,67.70238488,-0.045186241,-0.043313658,0.039606069,-0.052808092
201,10,0.7,2,35.86206897,942.088967,-8423.219806,1092,-294.4831856,-134.4684817,-767.2080783,-3622,-9156,-1130,3215,-1696,-5805,60,64.62,59.82,67.74,-0.00229595,-0.001823733,0.001788661,0.037615118
201,10,0.7,2,36.55172414,1168,-8482,1190,-334,-146,-832,-3636,-9294,-1314,3100,-1777,-5641,59.99742188,64.61789396,59.82153386,67.78,-0.002578125,-0.002106037,0.001533858,0.04
201,10,0.7,2,37.24137931,1174,-8696,1096,-351,-176,-838,-3804.309049,-9434.916324,-1401.51172,2921.528683,-1883.406972,-5378.836703,59.949375,64.5702129,59.85988397,67.78,-0.048046875,-0.047681059,0.038350112,0
201,10,0.7,2,37.93103448,1319.734184,-8656.07085,865.2587209,-375.8150693,-188.6103937,-861.2248589,-4198.801991,-9586.480865,-1463.406083,2689.039321,-2011.622843,-5030.68618,59.94,64.52894485,59.92384122,67.78,-0.009375,-0.041268054,0.06395725,0
201,10,0.7,2,38.62068966,1566,-8546,696,-401,-201,-895,-4721.140408,-9724.587243,-1512.744586,2418.185618,-2135.535229,-4619.617305,59.94,64.49116974,59.99682774,67.78,0,-0.037775113,0.072986524,0
201,10,0.7,2,39.31034483,1792,-8084,924,-419,-229,-927,-5272.985883,-9825.129081,-1562.588726,2124.621276,-2229.031743,-4168.698954,59.91,64.36287089,60,67.78,-0.03,-0.128298843,0.003172255,0
201,10,0.7,2,40,1942,-7962,1050,-468,-273,-917,-5756,-9864,-1626,1824,-2266,-3701,59.88,64.27803582,60.00357816,67.77787979,-0.03,-0.084835071,0.003578156,-0.002120212
201,10,0.7,2,40.68965517,2480,-7798,1218,-685,-371,-888,-6245.210668,-9717.300513,-1709.554075,1494.347206,-2206.093503,-3185.776553,59.88,64.43618767,60.08279947,67.72798306,0,0.158151842,0.079221311,-0.049896724
201,10,0.7,2,41.37931034,2350.751517,-7843.047535,1107.037037,-667.3703704,-398.7922243,-904.1979291,-6780.909483,-9354.968035,-1804.595528,1125.357726,-2057.249341,-2602.137105,59.85216797,64.4475293,60.14545559,67.6730525,-0.027832031,0.011341631,0.062656121,-0.054930566
201,10,0.7,2,42.06896552,2039.280812,-7969.428403,900.962963,-634.6296296,-414.2188573,-940.173636,-7212.653556,-8893.65154,-1901.339217,750.189383,-1865.780508,-1987.929104,59.76134766,64.34157227,60.17961228,67.63052054,-0.090820312,-0.105957031,0.034156688,-0.042531956
201,10,0.7,2,42.75862069,1660,-8164,790,-617,-440,-977,-7390,-8450,-1990,402,-1678,-1381,59.76,64.37808467,60.18,67.71161001,-0.001347656,0.036512408,0.000387723,0.081089472
201,10,0.7,2,43.44827586,1028.719188,-9343.238263,898.8888889,-635.6293844,-549.4215251,-1004.284436,-7355.865269,-7913.015982,-2056.801872,81.81561979,-1479.928988,-762.2692919,59.76,64.41,60.18154076,67.77119886,0,0.031915327,0.001540764,0.059588846
201,10,0.7,2,44.13793103,249.2484828,-11298.2858,1101.111111,-679.36988,-712.2663181,-1032.495993,-7286,-7574,-2140,-202,-1287,-182,59.76,64.41,60.21841996,67.59798494,0,0,0.0368792,-0.173213922
201,10,0.7,2,44.82758621,-132,-12328,1210,-730,-796,-1074,-7184,-8112,-2336,-423,-1147,279,59.75606323,64.41,60.2625124,67.62189941,-0.003936768,0,0.044092433,0.023914476
201,10,0.7,2,45.51724138,-57.625,-11820.5,1121.245372,-792.52092,-792.304993,-1175.239896,-7424,-7976,-2022,-654,-1027,978,59.73280884,64.41,60.29953931,67.85651855,-0.023254395,0,0.037026908,0.234619141
201,10,0.7,2,46.20689655,106,-10704,908.4876577,-871.6380167,-781.896648,-1345.867712,-8590,-14684,-3504,-922,-930,1451,59.70735718,64.41,60.3,67.82663697,-0.02545166,0,0.000460695,-0.02988158
201,10,0.7,2,46.89655172,269.625,-9587.5,651.9861149,-948.6861051,-765.7899791,-1543.061673,-8098,-3736,794,-704,-947,1950,59.7,64.39845919,60.3,67.75865524,-0.007357178,-0.01154081,0,-0.067981736
201,10,0.7,2,47.5862069,344,-9080,432,-1005,-745,-1724,-10854,-7728,-2762,-921,-1020,2863,59.7,64.28960513,60.3,67.66772922,0,-0.108854061,0,-0.090926023
201,10,0.7,2,48.27586207,198,-9896,268,-1036,-697,-1880,-9271.615924,-7562.720477,-1865.531246,-790.3333333,-938.9235314,2746.06342,59.68285365,64.27,60.3123102,67.5613957,-0.017146346,-0.019605129,0.012310197,-0.106333511
201,10,0.7,3,48.96551724,488,-10812,846,-1109,-635,-2089,-5739.45407,-7220.552065,39.38195282,-547.6666667,-718.2915073,2459.349062,59.64059841,64.27,60.35627519,67.47109151,-0.042255241,0,0.043964991,-0.090304196
201,10,0.7,3,49.65517241,369.7142857,-11381.50301,897.8150685,-1212.705102,-637.5,-2248.396827,-2080,-6932,1776,-417,-392,2099,59.64,64.30808467,60.39090865,67.47,-0.000598412,0.038084673,0.03463346,-0.001091508
201,10,0.7,3,50.34482759,120,-11724,914,-1280,-640,-2388,1188,-6780,2902,-862,409,1570,59.64,64.33921387,60.42899684,67.47,0,0.031129194,0.038088194,0
201,10,0.7,3,51.03448276,-280,-11844,760,-1283,-606,-2518,9672,-7902,1326,-1709,621,1495,59.64,64.31785156,60.4819959,67.47,0,-0.021362305,0.05299906,0
201,10,0.7,3,51.72413793,261,-11716,826.6906475,-1258.033567,-641.1250844,-2712.704116,7548,-8262,-4634,-1795,71,2174,59.64,64.28623535,60.49,67.47,0,-0.031616211,0.008004098,0
201,10,0.7,3,52.4137931,802,-11588,940,-1220,-715,-2954,-1484,-7474,-7040,-1161,-845,2640,59.64,64.27,60.49,67.47,0,-0.016235352,0,0
201,10,0.7,3,53.10344828,-162,-12542,1036,-1197,-832,-3241,-4852,-5806,-5344,-919,-440,3107,59.64,64.27,60.49361082,67.44970891,0,0,0.003610816,-0.020291091
201,10,0.7,3,53.79310345,-444.5501966,-12571.4279,612,-1223.5,-732.5,-3440.47986,-4115.703704,-6486.814815,-2919.472227,-962.2962963,-46.47515678,2943.449068,59.64,64.27,60.50284732,67.39604026,0,0,0.009236508,-0.053668651
201,10,0.7,3,54.48275862,-552,-12580,188,-1250,-633,-3599,-2748.296296,-7751.185185,-337.9583355,-1042.703704,312.2624216,2625.009248,59.64,64.27,60.51531561,67.31980098,0,0,0.012468289,-0.076239277
201,10,0.7,3,55.17241379,-167.0799201,-12437.91184,410,-1225.721429,-701.0499076,-3720,-2012,-8432,864,-1086,469,2410,59.64,64.27,60.52862177,67.23179801,0,0,0.013306158,-0.08800297
201,10,0.7,3,55.86206897,468,-12110,632,-1184,-832,-3841,-2141.487427,-8419.493984,662.75,-916.8746804,380.09375,2354.615912,59.64,64.27,60.54037189,67.14283828,0,0,0.011750116,-0.08895973
201,10,0.7,3,56.55172414,897.3228538,-11129.08816,559,-1138.278571,-1034.450092,-4001.27474,-2453.133139,-8380.983957,220,-538.4158143,184.5,2324.663239,59.64,64.22847168,60.54817205,67.06372872,0,-0.04152832,0.007800162,-0.079109557
201,10,0.7,3,57.24137931,1450,-10334,486,-1110,-1174,-4199,-2831.712282,-8314.981952,-222.75,-143.9990411,-11.09375,2292.878946,59.64,64.2,60.54505394,67.00252532,0,-0.02847168,-0.003118111,-0.061203403
201,10,0.7,3,57.93103448,2975.322406,-11585.16722,621.4285714,-1247.337712,-1113,-4536.823593,-3162,-8220,-424,73,-100,2232,59.64,64.2,60.4984022,66.94735425,0,0,-0.04665174,-0.055171073
201,10,0.7,3,58.62068966,4572,-13332,960,-1489,-1052,-4765,-3418,-7832,534,115,10,2021,59.64,64.24704928,60.50714635,66.94,0,0.047049282,0.008744148,-0.007354248
201,10,0.7,4,59.31034483,5234,-14112,1908,-1716,-1070,-4583,-3268.97561,-7842.194231,983.5396913,69.5,53.89495798,1770.068246,59.64,64.39952548,60.54940159,66.94,0,0.152476198,0.042255241,0
201,10,0.7,4,60,5584,-13834,1990,-1863,-1126,-4411,-3028,-7870,1178,24,72,1520,59.64,64.49088651,60.55,66.908511,0,0.091361031,0.000598412,-0.031488999
201,10,0.7,4,60.68965517,4920.92595,-12783.40358,2053.260474,-1805.075067,-1291.65263,-4142.785141,-2808.02439,-8119.805769,649,39.63483146,44.42977528,1302.452733,59.64,64.57125038,60.55,66.85418292,0,0.08036387,0,-0.054328081
201,10,0.7,4,61.37931034,3444.518567,-10888.28574,2105.96357,-1674.483467,-1574.746488,-3763.47715,-2680,-8352,120,70,7,1111,59.64,64.64236532,60.55,66.79794061,0,0.071114942,0,-0.05624231
201,10,0.7,4,62.06896552,1924,-8754,2128,-1536,-1904,-3238,-2862,-8234,404,108,-8,957,59.64,64.70501923,60.55,66.8153125,0,0.062653908,0,0.01737189
201,10,0.7,4,62.75862069,586,-6336,1978,-1405,-2310,-2220,-3009.594023,-8077.643376,673.3624302,96.94221106,-6.595132743,778.7466051,59.64,64.76,60.55,66.87,0,0.054980769,0,0.0546875
201,10,0.7,4,63.44827586,1534.560167,-5501.685244,401.4571603,-1253.116816,-1618.183885,-2304.5,-3162,-7982,894,81,-3,591,59.64,64.80598275,60.58785874,66.87,0,0.045982753,0.037858742,0
201,10,0.7,4,64.13793103,2702,-4870,-1050,-1061,-530,-2389,-3366,-8318,1028,73,8,405,59.64,64.8451426,60.60505394,66.87,0,0.039159844,0.017195196,0
201,10,0.7,4,64.82758621,3000,-4026,-1016,-756,199,-2244,-3260.532736,-8172,966.6634788,53.38461538,6.51986755,259.4776311,59.64,64.8835174,60.5584022,66.87,0,0.038374807,-0.04665174,0
201,10,0.7,4,65.51724138,1988,-3573.822967,-479.4856083,-467.7134,821.253591,-1789.06585,-3018,-8026,826,39,2,123,59.65898438,64.92616017,60.55,66.87,0.018984375,0.042642768,-0.008402198,0
201,10,0.7,4,66.20689655,976,-3370,248,-210,1149,-1148,-2510,-8154,534,39,-32,-25,59.7,64.97,60.55,66.87,0.041015625,0.043839827,0,0
201,10,0.7,4,66.89655172,982.1058849,-3706,698.422455,8.280969919,1101.0149,-525.4801657,-2687,-8165.658056,513.5769231,48.4137931,-49.31738035,-141.40369,59.7,65.02136377,60.55,66.91416853,0,0.051363773,0,0.044168532
201,10,0.7,4,67.5862069,999.3228809,-4330,1073.322339,202.7278829,988.1409115,132.3727704,-2864,-8176,502,65,-57,-246,59.69505394,65.04,60.55,66.94,-0.004946061,0.018636227,0,0.025831468
201,10,0.7,4,68.27586207,1026,-4666,1230,369,857,774,-2736.8744,-8275.929245,487.9855769,80.00287356,-25.5,-361.7226586,59.6484022,65.04,60.55,66.94,-0.04665174,0,0,0
201,10,0.7,4,68.96551724,1105.059398,-4644.945896,901.5881481,496.6940669,696.1654576,1398.638201,-2508,-8366,470,97,6,-446,59.64,65.06214844,60.54752144,66.93868976,-0.008402198,0.022148437,-0.002478559,-0.001310236
201,10,0.7,4,69.65517241,1268,-4592,412,622,526,1967,-2278.986889,-8291.499259,416.3219373,122.2592593,4.477366255,-484.4136988,59.64,65.11,60.53498585,66.93111386,0,0.047851563,-0.012535593,-0.007575909
201,10,0.7,4,70.34482759,1844.539126,-4345.054104,142.5673508,787.6578533,386.1255587,2434.213251,-2023.416621,-8142.331852,341.7165242,149.962963,0.732510288,-511.6512938,59.64,65.11,60.51724834,66.91767336,0,0,-0.017737507,-0.013440491
201,10,0.7,4,71.03448276,2376,-4130,-120,967,273,2839,-1778,-8030,304,163,-4,-522,59.64,65.11342622,60.50042882,66.89937865,0,0.003426219,-0.016819522,-0.018294713
201,10,0.7,4,71.72413793,2442,-4182,-474,1141,200,3182,-1547.318806,-7975.223704,437.2592593,162.3494777,-11.35783329,-492.8134525,59.64,65.16039382,60.49064718,66.87724008,0,0.046967605,-0.009781639,-0.022138574
201,10,0.7,4,72.4137931,2264.563167,-4281.704791,-611.6420305,1366.007739,118.7113591,3537.348434,-1325.595075,-7932.945185,684.7407407,160.5878443,-21.28356781,-425.4046828,59.64,65.27362419,60.49,66.83958344,0,0.113230367,-0.000647179,-0.037656636
201,10,0.7,4,73.10344828,1950,-4470,-668,1616,13,3927,-1134,-7916,818,158,-30,-350,59.64,65.40580745,60.48937586,66.78546388,0,0.132183257,-0.000624143,-0.054119563
201,10,0.7,4,73.79310345,1648,-5076,-198,1872,-175,4404,-949.7894737,-7964.222222,773.9259259,152.2214017,-37.45305771,-274.4058716,59.64,65.44248927,60.44352538,66.73622933,0,0.036681826,-0.04585048,-0.049234546
201,10,0.7,4,74.48275862,1431.72134,-5678.839403,-230.9,2052.653083,-314.1830129,4822.935458,-785.2280702,-8053.777778,692.0740741,140.8245699,-44.11541774,-186.5854341,59.64,65.49085937,60.42,66.72,0,0.048370095,-0.023525377,-0.016229331
201,10,0.7,4,75.17241379,1254,-6070,-310,2204,-384,5202,-714,-8102,648,124,-47,-87,59.64,65.58740191,60.42,66.72,0,0.096542535,0,0
201,10,0.7,4,75.86206897,1067.238304,-6148.478441,-580.4186813,2350.7943,-340.7622304,5545.918386,-1244,-7872,810,84,19,36,59.61785874,65.65439088,60.39785874,66.66464686,-0.022141258,0.066988971,-0.022141258,-0.055353145
201,10,0.7,4,76.55172414,964,-6218,-838,2470,-248,5855,-1027,-8139,956.9558945,30.57164109,52.91332471,111.8909314,59.58,65.69,60.36,66.57,-0.037858742,0.035609124,-0.037858742,-0.094646855
201,10,0.7,4,77.24137931,982.7542067,-6399.058521,-888.3458283,2563.907223,-103.4387936,6138.699944,-810,-8406,1036,-19,68,176,59.62101563,65.64985991,60.36,66.67253906,0.041015625,-0.040140086,0,0.102539063
201,10,0.7,4,77.93103448,1028.677885,-6688.083536,-917.0302674,2650.250865,115.3642954,6406.579229,-852.3326693,-8340.418746,1027.258621,-55.42829187,60.05405405,239.5136083,59.64,65.57587632,60.3515978,66.69516044,0.018984375,-0.073983597,-0.008402198,0.022621378
201,10,0.7,4,78.62068966,1086.26262,-7036.566783,-940.6995728,2713.469074,383.2352368,6652.1689,-968,-8170,1012,-76,47,310,59.64,65.47883469,60.30494606,66.52979112,0,-0.097041628,-0.04665174,-0.165369318
201,10,0.7,4,79.31034483,1140,-7396,-976,2738,675,6869,-1434,-7616,998,-79,37,411,59.64,65.47,60.3,66.41353799,0,-0.008834689,-0.004946061,-0.116253129
201,10,0.7,4,80,1187.255397,-7796.506032,-1037.748152,2719.9662,1037.268116,7064.837876,-1450,-8048,852,-109,89,435,59.64,65.47,60.3,66.35,0,0,0,-0.063537994
201,10,0.7,4,80.68965517,1238,-8214,-1106,2681,1436,7212,-1439,-8034.858407,862,-126.2733852,120.9470046,497.4663101,59.67249029,65.47,60.26750971,66.35,0.032490288,0,-0.032490288,0
201,10,0.7,4,81.37931034,1296,-8578,-1162,2614,1795,7290,-1428,-8004,872,-143,136,577,59.71691062,65.47980256,60.22562958,66.35,0.044420334,0.009802565,-0.041880134,0
201,10,0.7,4,82.06896552,1700.045937,-9100.471568,-956.4844675,2506.929576,2043.982265,7294.203658,-1602,-7912.617083,723,-168.9302045,124,646.5080413,59.75663983,65.53422959,60.19054112,66.35,0.039729206,0.05442703,-0.035088457,0
201,10,0.7,4,82.75862069,2462.336517,-9716.577176,-510.0800461,2366.018754,2243.380022,7296.379607,-1776,-7822,574,-200,112,708,59.76,65.54,60.15547734,66.3281636,0.003360172,0.005770405,-0.035063778,-0.021836401
201,10,0.7,4,83.44827586,3188,-10284,-78,2207,2325,7297,-1686.3125,-7791.055147,636.1655209,-232.446429,114.9326923,755.6252547,59.76,65.54,60.12,66.27,0,0,-0.035477343,-0.058163599
201,10,0.7,4,84.13793103,3730,-10738,248,2017,2116,7250,-1489,-7767.04902,782.2747224,-267.1145921,123.1538462,796.7269838,59.79503591,65.57742476,60.08239451,66.22639789,0.03503591,0.037424763,-0.03760549,-0.043602114
201,10,0.7,4,84.82758621,4528,-10896,420,1730,1606,7164,-1291.6875,-7751.518382,951.7465627,-304.7254591,135.7980769,834.965221,59.82927991,65.62804744,60.04449184,66.17989922,0.034243996,0.050622673,-0.037902666,-0.04649867
201,10,0.7,4,85.51724138,4804.799577,-10813,316.2610397,1495.355318,1045.26125,6999.708757,-1202,-7746,1084,-346,152,874,59.84678953,65.67450621,60.00732484,66.12943757,0.017509625,0.046458776,-0.037167009,-0.05046165
201,10,0.7,4,86.20689655,4916,-10730,114,1304,530,6790,-1413.443459,-7814.761236,1184.362639,-394.5479429,193.8176347,917.1713954,59.86206695,65.72075382,59.98671289,66.10596702,0.015277425,0.046247612,-0.020611943,-0.023470547
201,10,0.7,4,86.89655172,4918,-10864,-142,1168,158,6570,-1734,-7928,1238,-448,244,954,59.88269606,65.76433464,59.96947857,66.09256436,0.020629105,0.04358082,-0.017234322,-0.013402664
201,10,0.7,4,87.5862069,4753.420875,-10821.92773,-317.9641815,996.8070231,-110.6037164,6115.552393,-1973.556541,-8037.238764,966.3279743,-511.3593846,273.0479201,979.7116975,59.92386592,65.8133949,59.95527483,66.08288419,0.041169858,0.049060256,-0.014203737,-0.009680162
201,10,0.7,4,88.27586207,4421.73064,-10714.96658,-462.4562355,813.7427012,-328.9129693,5458.556018,-2104,-8102,670,-559,299,997,59.94,65.83,59.945185,66.07237709,0.016134082,0.016605101,-0.010089837,-0.010507107
201,10,0.7,4,88.96551724,4166,-10572,-598,675,-419,4761,-1848,-8027,642.3902998,-577.9293478,335.0575221,1003.685498,59.94,65.83,59.94029237,66.05649359,0,0,-0.004892622,-0.015883498
201,10,0.7,4,89.65517241,4032.121212,-10360.76932,-726.3168655,596.9283306,-277.6559356,4066.04427,-1592,-7952,616,-586,357,1012,59.95813817,65.83,59.94,66.02368471,0.018138174,0,-0.000292374,-0.032808877
201,10,0.7,4,90.34482759,3926.727273,-10023.76629,-847.137576,537.6461515,29.46590652,3321.42596,-1664,-7954,502,-563,311,1066,60.00361915,65.83,59.93880318,65.97554271,0.04548098,0,-0.001196825,-0.048142005
201,10,0.7,4,91.03448276,3884,-9552,-980,466,327,2546,-1766.1266,-7922.902439,308.2205239,-562.2261905,313,1105.73915,60.03870013,65.83,59.85429269,65.92418914,0.035080979,0,-0.084510482,-0.051353564
201,10,0.7,4,91.72413793,3995.416819,-8286.463782,-1182.348976,354.7322154,568.4184632,1711.485069,-1830,-7886,164,-562,318,1143,60.07483122,65.8234348,59.82,65.91,0.036131082,-0.006565199,-0.034292693,-0.014189142
201,10,0.7,4,92.4137931,4224,-7292,-1312,236,773,886,-1666,-7878.969356,136.4601064,-562,337.35,1183.524107,60.11264769,65.77193459,59.82,65.91,0.037816471,-0.051500207,0,0
201,10,0.7,4,93.10344828,4577.770864,-7592.572494,-985,151.6385413,904.0294725,183.5247021,-1502,-7872,126,-562,360,1230,60.155512,65.6785385,59.84735599,65.91,0.042864312,-0.093396095,0.027355994,0
201,10,0.7,4,93.79310345,4978,-8410,-658,49,1024,-538,-1721.34322,-7837.128205,393.4615385,-592.2586207,368.1182081,1310.187783,60.18,65.61,59.87940159,65.91,0.024488002,-0.068538498,0.032045593,0
201,10,0.7,4,94.48275862,5274,-11634,-1206,-182,1175,-1436,-2012,-7808,696,-652,378,1364,60.18,65.61,59.83714635,65.91,0,0,-0.042255241,0
201,10,0.7,4,95.17241379,5399.739218,-10333.50459,-1470.9932,-309.3303889,1362.606972,-2108.497788,-2146.65678,-7989,753.5384615,-725.4865791,431.2462233,1362.5,60.18180617,65.60149178,59.82,65.91,0.001806167,-0.008508223,-0.017146346,0
201,10,0.7,4,95.86206897,5514,-8614,-1654,-419,1489,-2631,-2210,-8170,776,-823,533,1361,60.1982198,65.52868103,59.82,65.91,0.016413636,-0.072810752,0,0
201,10,0.7,4,96.55172414,5720,-7996,-1796,-554,1508,-2987,-1868,-8166,464,-957,712,1423,60.22206582,65.43833959,59.8115978,65.91,0.023846016,-0.090341431,-0.008402198,0
201,10,0.7,4,97.24137931,5322.878807,-8420,-1744.998046,-626.9984472,1754.537741,-3316.521158,-2535,-10455,1036,-900.5,933.5263898,1464.730769,60.24147926,65.4,59.78735599,65.91,0.019413444,-0.038339594,-0.024241807,0
201,10,0.7,4,97.93103448,4554,-8844,-1604,-660,1985,-3495,-3202,-12744,1608,-844,1066,1485,60.25724722,65.4,59.76494606,65.91,0.015767958,0,-0.022409933,0
201,10,0.7,4,98.62068966,3740.475582,-7267,-120.0019544,-502.5,1771.265619,-3328.267928,-1990,-11398,1060.657386,-1002.658138,928.2790958,1464,60.27321988,65.4,59.76,65.91283607,0.015972659,0,-0.004946061,0.002836074
201,10,0.7,4,99.31034483,2502,-5690,1274,-345,1301,-3037,-778,-10052,326,-1200,736,1443,60.28715633,65.4,59.76,65.93710632,0.013936449,0,0,0.024270251
201,10,0.7,4,100,-1461.354389,-8624,1083.092283,-604.5,220.7068033,-2701.732072,-990.0740741,-10090.00851,-38.05757529,-1252.7814,626.3186444,1557.788878,60.29681566,65.4,59.76,65.96722014,0.009659328,0,0,0.03011381
201,10,0.7,1,0,-4628,-11558,680,-864,-752,-2491,-1383.925926,-10207.57257,-321.6954543,-1285.317836,536.9371,1790.133312,60.3,65.39954802,59.76,65.98,0.003184344,-0.00045198,0,0.012779865
201,10,0.7,1,0.724637681,-3502,-8402,34,-687,-942,-2745,-1596,-10410,-436,-1341,500,1972,60.3,65.35971285,59.76,65.98,0,-0.03983517,0,0
201,10,0.7,1,1.449275362,-780,-7612,-738,-857,-335,-2954,-1240,-11446,1152,-1514,546,2049,60.3,65.28683458,59.76,65.99320302,0,-0.072878271,0,0.013203018
201,10,0.7,1,2.173913043,2322,-6278,-1920,-839,423,-3733,-1264.521531,-11945.90402,1056,-1580.023479,472.5,2215.081839,60.3,65.18873491,59.76,66.04481481,0,-0.098099666,0,0.051611797
201,10,0.7,1,2.898550725,6214,-7598,-2284,-794,304,-4324,-1322,-12164,960,-1613,399,2439,60.3,65.18,59.7355957,66.05,0,-0.008734913,-0.024404297,0.005185185
201,10,0.7,1,3.623188406,5576.392755,-7397,-1859.272395,-684.4288793,75.23078943,-3914.48079,-1506.478469,-11762,1218.528734,-1623.915497,498.6773553,2706.352804,60.3,65.17875706,59.7,66.05,0,-0.001242943,-0.035595703,0
201,10,0.7,1,4.347826087,4030,-7196,-1154,-578,-133,-3322,-1658,-11360,1630,-1632,641,2949,60.3,65.08575338,59.7,66.05,0,-0.093003678,0,0
201,10,0.7,1,5.072463768,150,-7330,-596,-539,-210,-3021,-1518,-12400,1916,-1643,710,3085,60.3,65.0143526,59.7,66.05,0,-0.071400783,0,0
201,10,0.7,1,5.797101449,826.5413819,-7931.479034,-260.787695,-478.2332008,-104.5,-2961.917269,-704.1010333,-12508.6703,1455.153631,-1749.055077,615,3229.313942,60.3,64.97595051,59.7,66.05,0,-0.038402087,0,0
201,10,0.7,1,6.52173913,1810,-8432,-104,-406,1,-2908,0,-12578,880,-1846,520,3420,60.3,64.94686139,59.6796784,66.05,0,-0.02908912,-0.020321596,0
201,10,0.7,1,7.246376812,2450.458618,-8294.116279,-329.6328294,-334.0134063,-54,-2680.849933,-876,-12694,722,-1820,612,3792,60.3,64.92055207,59.63647657,66.05149603,0,-0.026309321,-0.043201833,0.001496031
201,10,0.7,1,7.971014493,2784,-8124,-678,-255,-109,-2394,-1336.499752,-12647.27535,640.3737864,-1683.438592,658.0412149,4023.633362,60.3,64.90328469,59.60144794,66.15713413,0,-0.017267375,-0.035028629,0.105638103
201,10,0.7,1,8.695652174,2662,-8080,-898,-161,-88,-2208,-1736,-12506,604,-1561,715,4197,60.3,64.9,59.56244068,66.2,0,-0.003284692,-0.039007266,0.042865866
201,10,0.7,1,9.420289855,2892,-7498,-372,-10,6,-2023,-2260,-11514,682,-1554,939,4327,60.3,64.9,59.52178243,66.2,0,0,-0.04065825,0
201,10,0.7,1,10.14492754,3185.048926,-7657.250696,155.9556384,74.62201962,-9.990039841,-1806.714895,-4020,-11310,556,-1805,1127,4775,60.3,64.9,59.52,66.2,0,0,-0.001782427,0
201,10,0.7,2,10.86956522,3362,-7852,450,122,-40,-1587,-4923.916818,-12210.28939,1314.101893,-1937.255728,1313.682992,4790.472313,60.3,64.90153877,59.52229595,66.20457414,0,0.001538775,0.00229595,0.004574135
201,10,0.7,2,11.5942029,2996,-7900,426,136,-74,-1391,-5542,-13460,2074,-2046,1461,4795,60.3,64.94171789,59.56748219,66.30471661,0,0.040179117,0.045186241,0.100142479
201,10,0.7,2,12.31884058,2678.304031,-8025.273167,110.8396052,174.3839731,-14,-1225.89565,-5980,-14006,2076,-2170,1536,4702,60.31251781,65.00216598,59.58,66.37418772,0.01251781,0.060448084,0.01251781,0.069471109
201,10,0.7,2,13.04347826,2510,-8182,-184,209,46,-1060,-5468,-14154,2182,-2206,1815,4166,60.35770405,65.08970225,59.58,66.41187926,0.045186241,0.087536275,0,0.037691534
201,10,0.7,2,13.76811594,2861,-8336.703422,332,218.9367816,24.01428571,-862.1741787,-2987.622578,-12602.72607,3046.234378,-2076.770802,2194.146923,3525.188578,60.36,65.22791004,59.58,66.45442196,0.00229595,0.138207793,0,0.0425427
201,10,0.7,2,14.49275362,3212,-8426,848,223,-11,-652,-898,-9994,3824,-1865,2428,2898,60.36,65.34171959,59.58,66.49917029,0,0.113809543,0,0.044748331
201,10,0.7,2,15.2173913,3068.885777,-8377.763838,768,207.8863636,-41.51428571,-433.6036002,-1873.971681,-7652.78747,2207.48413,-1718.777931,2216.212344,2344.547279,60.36,65.38143798,59.58,66.54662824,0,0.03971839,0,0.047457954
201,10,0.7,2,15.94202899,2778,-8274,688,188,-59,-230,-2946,-5692,146,-1545,1757,1932,60.37391602,65.4218361,59.58,66.59264905,0.013916016,0.040398125,0,0.046020807
