locomotion_mode,terrain_info,walk_speed_info,gait_phase,gait_percentage,left_accel_x,left_accel_y,left_accel_z,left_gyro_x,left_gyro_y,left_gyro_z,right_accel_x,right_accel_y,right_accel_z,right_gyro_x,right_gyro_y,right_gyro_z,left_hip_angle,left_knee_angle,right_hip_angle,right_knee_angle,left_hip_angle_vel,left_knee_angle_vel,right_hip_angle_vel,right_knee_angle_vel
201,5,0.7,4,98.18880351,-346,-8787.7011,-1235.774354,2015.974185,-306.6029412,4533.868054,-2253,-7815,403.8043478,-194.873212,98.5371007,294.9819323,59.76,65.04,59.88,65.91,0,0,0,0
201,5,0.7,4,98.24368825,-314,-8874,-1316,1981,-352,4613,-2726,-7616,258,-248,112,342,59.79,65.075,59.88,65.91,0.03,0.035,0,0
201,5,0.7,4,98.298573,-364,-9087.784285,-1315.546961,1944.893952,-324.7240511,4666.181818,-2698.607759,-7623.19808,280.1875,-266.797971,118.2895896,374.5640352,59.82,65.11,59.88,65.91,0.03,0.035,0,0
201,5,0.7,4,98.35345774,-414,-9330,-1314,1909,-265,4691,-2627.12069,-7644.361546,329,-279.089158,122.4216642,404.5291424,59.82,65.11,59.88,65.91,0,0,0,0
201,5,0.7,4,98.40834248,-378,-9492,-1270,1872,-158,4655,-2527.573276,-7678.84424,377.8125,-289.585766,126.3429067,426.4796784,59.82,65.11,59.88,65.91,0,0,0,0
201,5,0.7,4,98.46322722,-434,-9774,-1186,1772,93,4553,-2416,-7726,400,-303,132,435,59.82,65.11,59.88,65.91,0,0,0,0
201,5,0.7,4,98.51811196,-360,-9904,-1166,1674,295,4477,-2212.939655,-7952.319227,278,-325.4088907,144.7934783,428,59.85,65.11,59.88,65.91,0.03,0,0,0
201,5,0.7,4,98.57299671,-200,-10014,-1152,1515,641,4267,-2066,-8152,156,-342,154,421,59.88,65.11048384,59.88,65.91,0.03,0.000483837,0,0
201,5,0.7,4,98.62788145,88.405512,-9986,-1136.091847,1373.912032,905.4038678,4025.00902,-2404,-7878,334,-345,141,457,59.88,65.15157204,59.88,65.91,0,0.0410882,0,0
201,5,0.7,4,98.68276619,480.3140108,-9934,-1114.042281,1240.843068,1132.372419,3754.04224,-2868,-7720,346,-398,163,484,59.88371483,65.2074021,59.88,65.91,0.003714834,0.05583006,0,0
201,5,0.7,4,98.73765093,892,-9906,-1072,1104,1329,3436,-2600,-7960,306,-436.7820484,205.1186441,461.5,59.90592036,65.2703514,59.88,65.91,0.022205526,0.062949301,0,0
201,5,0.7,4,98.79253568,1310,-10174,-784,957,1490,3011,-2332,-8200,266,-469,234,439,59.93113115,65.34084564,59.88,65.94808467,0.025210786,0.070494238,0,0.038084673
201,5,0.7,4,98.84742042,1911.595376,-9919.865927,-573.2790937,818.833704,1537.776576,2607.665162,-2487,-7989,362,-494.7475327,226.5,459,59.94,65.41448001,59.88,65.97732139,0.008868854,0.073634371,0,0.029236719
201,5,0.7,4,98.90230516,2512,-9408,-468,682,1556,2207,-2642,-7778,458,-522,219,479,59.94,65.48875776,59.88,65.92460411,0,0.074277747,0,-0.052717281
201,5,0.7,4,98.9571899,2964.024066,-8608.318913,-619.7477798,531.4167551,1430.246207,1787.668552,-2355,-8013,401.2363014,-563.4970556,265.8118812,459,59.94,65.63945058,59.88,65.92460411,0,0.150692828,0,-1.42E-14
201,5,0.7,4,99.01207464,3314,-7832,-816,397,1216,1374,-2068,-8248,308,-612,315,439,59.94,65.88705395,59.88,65.97732139,0,0.247603371,0,0.052717281
201,5,0.7,4,99.06695939,3536,-7478,-880,307,1033,990,-2266,-8001.51014,218.7636986,-658.8842401,317.3445359,522.5,59.97,65.9478071,59.88,65.98,0.03,0.060753144,0,0.002678608
201,5,0.7,4,99.12184413,3965.054249,-7332.315898,-816.0263158,232.9168577,783.1620405,573.5056537,-2464,-7748,166,-712,320,615,60,65.99494792,59.88,65.98,0.03,0.047140817,0,0
201,5,0.7,4,99.17672887,4316,-7196,-744,172,493,133,-2390,-7740,220,-783,387,626,60,66.1025,59.88,65.98,0,0.107552083,0,0
201,5,0.7,4,99.23161361,4392,-6922,-734,128,176,-337,-2221.354065,-7836.267554,158,-819.2156359,383.5,699.6508894,60,66.12,59.88,65.98,0,0.0175,0,0
201,5,0.7,4,99.28649835,4438,-6644,-780,116,-59,-606,-2100,-8002,96,-848,380,801,60,66.12,59.88,65.98,0,0,0,0
201,5,0.7,4,99.3413831,4369.269934,-6707.962001,-885.7728557,96.51985651,-401.6413032,-874.3149669,-2124,-8148,204,-879,457,866,60.00886885,66.12,59.88,65.98,0.008868854,0,0,0
201,5,0.7,4,99.39626784,4148.095424,-6941.257335,-1095.459584,64.52103383,-769.3206516,-1121.490817,-2595.36818,-8779.775701,505.6505407,-910.4659488,697.9052975,907.2899684,60.03407964,66.12,59.88,65.98,0.025210786,0,0,0
201,5,0.7,4,99.45115258,3752,-7406,-1454,10,-941,-1230,-3046,-9636,734,-958,885,956,60.05628517,66.12,59.88,65.98,0.022205526,0,0,0
201,5,0.7,4,99.50603732,1030,-32768,-2998,-208,523,80,-924,-10266,68,-1104,660,1077,60.06,66.15479004,59.88,65.98433397,0.003714834,0.034790039,0,0.004333973
201,5,0.7,4,99.56092206,818.0323255,-17790,-372,-67.47021944,32.02672718,-578.5,-126,-9172,-662,-1204,536,1231,60.06,66.26831543,59.88,66.01024042,0,0.113525391,0,0.025906447
201,5,0.7,4,99.61580681,618,-2812,2254,85,-694,-1237,-728.8127932,-9493.392393,-610.6886792,-1301.394787,493.304573,1379.751546,60.09264401,66.27,59.88,66.039653,0.032644006,0.00168457,0,0.029412583
201,5,0.7,4,99.67069155,-6104.892957,-4998.454991,410,99.58271944,-1194.526727,-1141.5,-1452,-10006,-494,-1397,474,1519,60.12,66.26825991,59.88,66.05,0.027355994,-0.001740086,0,0.010346996
201,5,0.7,4,99.72557629,-12628,-8256,-1434,111,-1460,-1046,-1667.369849,-10447.67278,-156.405311,-1493.018027,468.58023,1639.062244,60.12,66.22586638,59.88,66.05,0,-0.042393538,0,0
201,5,0.7,4,99.78046103,-7494.978627,-10557.54501,-1404.101496,142.3875,-106,-1495.679335,-1815.129369,-10867.28084,333.5751223,-1587.813089,465.1790039,1750.646907,60.12,66.17577501,59.88,66.03376465,0,-0.050091369,0,-0.016235352
201,5,0.7,4,99.83534577,-18,-11788,-1318,165,1248,-2306,-1870,-11054,584,-1676,464,1872,60.12,66.12473512,59.88,65.98078613,0,-0.051039883,0,-0.052978516
201,5,0.7,4,99.89023052,4884.978627,-8851,524.1014957,-112.5868089,1005.880832,-3329.820665,-1772.677291,-10824,242,-1757.838724,513.5,2019.805459,60.12,66.0798318,59.88,66.02152832,0,-0.044903323,0,0.040742188
201,5,0.7,4,99.94511526,7444,-5914,2310,-412,479,-3993,-1622,-10594,-100,-1828,563,2169,60.12,66.03804336,59.88,66.05,0,-0.041788443,0,0.02847168
201,5,0.7,4,100,2774,-7218,-1566,-438,-447,-2971,-1526,-11272,130,-1879,541,2295,60.12,65.99988224,59.88,66.05,0,-0.038161113,0,0
201,5,0.7,1,0,1226,-8214,-2334,-292,-240,-2831,-1390.44466,-11880.15484,591.38,-1942.570253,501.1036874,2454.216642,60.12,65.9230287,59.88,66.05,0,-0.076853545,0,0
201,5,0.7,1,0.694444444,842.3596374,-7833,-1117.827472,-65.10089021,-21.10983388,-2766.355125,-1278,-12206,912,-2013,469,2628,60.12,65.83118517,59.88,66.05,0,-0.091843532,0,0
201,5,0.7,1,1.388888889,702,-7452,274,81,103,-2692,-1222.878049,-12040.09596,619.5096396,-2105.693662,462.2661976,2792.007814,60.12,65.87352534,59.88,66.06277986,0,0.042340174,0,0.012779865
201,5,0.7,1,2.083333333,1449,-8022,564.8274718,48,-10,-2360.444147,-1198,-11778,220,-2163,456,2977,60.12,65.90758333,59.88,66.09289368,0,0.034057992,0,0.03011381
201,5,0.7,1,2.777777778,2196,-8592,680,15,-123,-1994,-1394,-11600,56,-2114,438,3234,60.12,65.853,59.88,66.11716393,0,-0.054583333,0,0.024270251
201,5,0.7,1,3.472222222,1943,-8310.993913,362,46.46332518,-61.27731092,-1860.814981,-1370,-10790,314,-2079,499,3335,60.12,65.80271119,59.88,66.12,0,-0.05028881,0,0.002836074
201,5,0.7,1,4.166666667,1690,-7978,44,84,7,-1741,-2458,-10060,180,-2056,652,3517,60.12,65.76,59.88,66.12,0,-0.04271119,0,0
201,5,0.7,1,4.861111111,2104,-7910,666,92,15,-1541,-3136,-10212,390,-2060,765,3685,60.12,65.72187667,59.84502058,66.16663923,0,-0.038123333,-0.034979424,0.046639232
201,5,0.7,1,5.555555556,2176,-8592,1056,66,-9,-1337,-4794,-10900,238,-2199,1002,4001,60.12,65.68083569,59.82,66.2,0,-0.041040976,-0.025020576,0.033360768
201,5,0.7,1,6.25,1983.647867,-8328,1060.671429,28.21917183,-41.21238938,-1183.887303,-5016,-11998,998,-2180,1158,3948,60.12,65.62938192,59.82,66.2,0,-0.05145377,0,0
201,5,0.7,1,6.944444444,1604,-8064,1062,-8,-61,-1037,-5710.571483,-11817.34194,829,-2120.507434,1280.285894,3768.606581,60.13714635,65.58445474,59.82,66.21380983,0.017146346,-0.04492718,0,0.013809825
201,5,0.7,1,7.638888889,1106,-8356,780,-30,-55,-861,-6250,-11374,660,-2020,1432,3480,60.17940159,65.54420702,59.82,66.26529749,0.042255241,-0.04024772,0,0.051487666
201,5,0.7,1,8.333333333,1372,-7924,676,-43,-26,-845,-5050,-10214,778,-1860,1776,3095,60.18,65.50056039,59.82,66.31523598,0.000598412,-0.043646634,0,0.049938489
201,5,0.7,1,9.027777778,1677.692612,-8036.28972,725,-44.95574351,-29.60303514,-741.4079813,-3428.416594,-8862.033016,1119.632489,-1632.301529,2039.546772,2729.321432,60.18,65.45739054,59.82,66.36317268,0,-0.043169843,0,0.047936704
201,5,0.7,1,9.722222222,1856,-8194,774,-47,-39,-614,-2014,-7478,1472,-1363,2202,2344,60.18,65.41637985,59.82,66.40381939,0,-0.041010696,0,0.040646705
201,5,0.7,1,10.41666667,1596,-8266,388,-65,-70,-557,-1326,-6214,1610,-1066,2246,1880,60.19714635,65.36965194,59.82,66.44415381,0.017146346,-0.046727904,0,0.040334422
201,5,0.7,1,11.11111111,1334.067961,-8159,202.7091444,-20.85514019,-56,-486.245216,-1652,-3630,826,-776,1790,1181,60.23940159,65.33047018,59.82,66.48552546,0.042255241,-0.039181763,0,0.041371647
201,5,0.7,2,11.80555556,1188,-8052,122,29,-42,-422,-1590.416125,-2008.327861,-887.0880948,-527.733869,682.001348,1144.619127,60.24,65.33,59.82,66.53523598,0.000598412,-0.000470181,0,0.049710522
201,5,0.7,2,12.5,1343.191617,-8062.808824,322,38.35514019,-43.16,-384.0216837,-1436,-1184,-2106,-264,-332,1113,60.23505394,65.33,59.81505394,66.58299702,-0.004946061,0,-0.004946061,0.047761045
201,5,0.7,2,13.19444444,1506,-8082,522,42,-46,-347,-728.5838752,-1079.447836,-1158.86992,103.4493601,-701.6996226,822.2839349,60.1884022,65.33,59.7684022,66.62287696,-0.04665174,0,-0.04665174,0.039879938
201,5,0.7,2,13.88888889,1517.808383,-8103.781836,478.8026316,42,-56.62409091,-288.2280333,-114,-1042,-138,489,-860,326,60.18,65.32661927,59.76,66.66955051,-0.008402198,-0.003380734,-0.008402198,0.04667355
201,5,0.7,2,14.58333333,1522,-8120,424,42,-67,-226,-286.1875,-1447.855209,-10.3551808,813.3100677,-743.6387507,-239.8912054,60.18,65.3087686,59.76,66.72,0,-0.017850666,0,0.050449486
201,5,0.7,2,15.27777778,1459.288243,-8125.046016,405.1887973,38.71875,-69.26704545,-167.161351,-665,-2378.613892,78.73983929,1114.519413,-468.7033351,-921.2323287,60.18,65.28135434,59.76,66.76119469,0,-0.027414262,0,0.041194687
201,5,0.7,2,15.97222222,1310.601982,-8128.818681,392.3806523,31.5,-70.68181818,-106.8934231,-1043.8125,-3404.065628,130.9649397,1407.969052,-146.416252,-1614.707288,60.17505394,65.24988158,59.76,66.80278983,-0.004946061,-0.03147276,0,0.041595143
201,5,0.7,2,16.66666667,1135.114729,-8131.182005,381.3821812,24.28125,-71.75568182,-59.92878368,-1216,-4094,148,1709,112,-2217,60.1284022,65.20336909,59.76,66.8472514,-0.04665174,-0.046512492,0,0.044461568
201,5,0.7,2,17.36111111,992,-8132,368,21,-73,-41,-1103,-4401.128657,-128,2036.308636,320.3516676,-2714.707269,60.12,65.12951831,59.76,66.93219698,-0.008402198,-0.073850777,0,0.08494558
201,5,0.7,2,18.05555556,898.2037485,-8125.611111,346.0070423,39.23684211,-74.375,-60.89473684,-990,-4634,-404,2337,434,-3131,60.12,65.04,59.76,67.02,0,-0.089518308,0,0.087803021
201,5,0.7,2,18.75,806,-8112,332,63,-76,-97,-1070,-4840,-372,2561,416,-3438,60.12,64.98394531,59.80101563,66.9653125,0,-0.056054688,0.041015625,-0.0546875
201,5,0.7,2,19.44444444,661.9952607,-8082.388889,390.6995516,73.26315789,-79.5,-133.28448,-1040.369718,-5283.090111,-381.5104895,2765.022807,308.519482,-3764.671459,60.12,65.00659808,59.82,66.95463013,0,0.022652767,0.018984375,-0.010682369
201,5,0.7,2,20.13888889,570,-8060,502,78,-82,-174,-980,-5900,-406,2949,142,-4096,60.12,65.22340192,59.82,67.05602028,0,0.216803841,0,0.101390144
201,5,0.7,2,20.83333333,714.7595887,-8176,613.3580521,65.90384615,-78,-217.0976649,-895.4356406,-6707.180261,-517.6818182,3097.42403,-7.902595343,-4411.548292,60.11477085,65.23472577,59.82,67.12353246,-0.005229151,0.01132385,0,0.067512186
201,5,0.7,2,21.52777778,960,-8292,778,41,-74,-263,-786,-7456,-658,3250,-177,-4741,60.09136322,65.12158889,59.82,67.17,-0.02340763,-0.113136878,0,0.046467539
201,5,0.7,2,22.22222222,1166,-8120,1148,4,-82,-312,-660,-7860,-728,3458,-391,-5124,60.06695384,65.00361021,59.82,67.21088371,-0.024409383,-0.117978685,0,0.040883705
201,5,0.7,2,22.91666667,1018.133816,-8095.9375,1141.862819,-40.66406289,-96.34782609,-302,-839.1990291,-7787,-884.7957317,3591.390491,-579.4870876,-5426.014474,60.06,64.97645996,59.82,67.25411903,-0.006953836,-0.027150246,0,0.043235324
201,5,0.7,2,23.61111111,826,-8088,1122,-85,-106,-292,-1120,-7714,-1064,3686,-763,-5692,60.06,65.03354004,59.82,67.30507801,0,0.057080078,0,0.050958978
201,5,0.7,2,24.30555556,762,-8192,874,-121,-101,-360,-1307.580112,-7811.753569,-1212.832379,3750.10053,-972.2376073,-5951.758636,60.06,64.98833706,59.79785874,67.3538221,0,-0.045202974,-0.022141258,0.048744092
201,5,0.7,2,25,771.6643836,-8073,811.9288499,-147.6700807,-95.0286757,-422.7964719,-1484,-7992,-1302,3797,-1154,-6170,60.06,64.9,59.76,67.4,0,-0.088337065,-0.037858742,0.046177902
201,5,0.7,2,25.69444444,796,-7954,752,-170,-88,-482,-1664,-8186,-1314,3830,-1263,-6316,60.06,64.9,59.76,67.45161544,0,0,0,0.051615442
201,5,0.7,2,26.38888889,866,-8062,542,-189,-79,-537,-1976,-8652,-1206,3855,-1355,-6505,60.05446289,64.9,59.75446289,67.47,-0.005537109,0,-0.005537109,0.018384558
201,5,0.7,2,27.08333333,982,-8404,548,-180,-73,-551,-2116.141092,-9124.406032,-1158.275748,3843.686441,-1405.359497,-6646.097479,60.00553711,64.9,59.70553711,67.47,-0.048925781,0,-0.048925781,0
201,5,0.7,2,27.77777778,1228,-8122,688,-191,-85,-568,-2212,-9550,-1138,3825,-1451,-6759,60,64.92583147,59.7,67.47,-0.005537109,0.025831468,-0.005537109,0
201,5,0.7,2,28.47222222,1270,-7940,548,-200,-91,-596,-2309.927461,-9899.854621,-1199.964103,3812.080069,-1512.168584,-6864.728365,60,64.97,59.7,67.47,0,0.044168532,0,0
201,5,0.7,2,29.16666667,1246,-8328,456,-198,-108,-587,-2362,-10164,-1310,3796,-1585,-6921,60,64.97,59.73249029,67.47,0,0,0.032490288,0
201,5,0.7,2,29.86111111,1154.778898,-8239.853755,469.6117647,-202.6860465,-101,-626.169279,-2358.830189,-10310.42388,-1412.882209,3766.591576,-1672.916108,-6898.33125,60,64.96493914,59.77437042,67.44233571,0,-0.005060859,0.041880134,-0.027664292
201,5,0.7,2,30.55555556,1060,-8096,508,-211,-94,-692,-2350,-10446,-1528,3719,-1779,-6843,60,64.91917484,59.80945888,67.27180582,0,-0.045764299,0.035088457,-0.170529887
201,5,0.7,2,31.25,1030,-7988,688,-219,-115,-746,-2249.746147,-10707.8875,-1675.796546,3624.271759,-1917.180817,-6680.669005,59.97785874,64.78071647,59.85069001,67.20861589,-0.022141258,-0.138458376,0.041231126,-0.063189933
201,5,0.7,2,31.94444444,1030.502049,-8097.976581,808.1688593,-239.8534346,-123.8699012,-800.0641986,-2150,-10884,-1798,3493,-2065,-6441,59.94,64.62,59.88,67.17,-0.037858742,-0.160716467,0.029309994,-0.038615888
201,5,0.7,2,32.63888889,1032,-8308,924,-280,-132,-858,-2144,-10878,-1848,3344,-2194,-6203,59.98101563,64.76355469,59.88,67.08069582,0.041015625,0.143554687,0,-0.089304178
201,5,0.7,2,33.33333333,1275.497951,-8625.023419,1085.196896,-439.1221751,-144.3980233,-941.7338305,-2342.060635,-10897.61938,-1809.906122,3114.315561,-2341.49891,-5821.706878,59.99869243,64.82732139,59.88,66.97772344,0.017676803,0.063766705,0,-0.102972377
201,5,0.7,2,34.02777778,1518,-8842,1252,-573,-165,-1000,-2756,-10948,-1726,2818,-2450,-5333,59.98593049,64.80416853,59.88,66.87840043,-0.012761939,-0.02315286,0,-0.099323015
201,5,0.7,2,34.72222222,438,-8596,1390,-452,-225,-1007,-3396.269303,-11217.38062,-1575.827211,2443.138089,-2494.139498,-4740.324276,59.96437833,64.77460411,59.90214126,66.87,-0.021552153,-0.029564421,0.022141258,-0.00840043
201,5,0.7,2,35.41666667,866,-7554,710,-622,-241,-1215,-4222,-11456,-1358,2015,-2513,-4084,59.94,64.76,59.94,66.87,-0.024378335,-0.014604112,0.037858742,0
201,5,0.7,2,36.11111111,940.8099825,-7668.592593,547.4596723,-679.6188748,-263.3345085,-1320.334413,-5272.210729,-11453.35689,-1078.707754,1573.864142,-2423.774006,-3460.837777,59.91283463,64.76,59.94,66.88538804,-0.027165373,0,0,0.01538804
201,5,0.7,2,36.80555556,976.9089122,-7881.407407,456.1332374,-716.8094374,-288.4619961,-1395.858479,-5996,-11444,-766,1115,-2228,-2771,59.87817287,64.76,59.94,66.91596934,-0.034661759,0,0,0.030581295
201,5,0.7,2,37.5,1036,-7996,372,-730,-308,-1474,-6086,-10054,-474,647,-1875,-1869,59.83485602,64.76,59.94,66.93836965,-0.043316846,0,0,0.022400312
201,5,0.7,2,38.19444444,1188.680347,-7919,252.5307824,-723.5,-316.8184303,-1568.831796,-6101.343023,-9071.798567,-717.1633987,320.2875548,-1501.703731,-1129.130253,59.75988974,64.73152832,59.94,66.92180553,-0.074966277,-0.02847168,0,-0.016564116
201,5,0.7,2,38.88888889,1426,-7842,184,-717,-329,-1662,-6114,-8416,-998,73,-1135,-459,59.70067383,64.6923584,59.94067383,66.86307195,-0.059215917,-0.039169922,0.000673828,-0.058733576
201,5,0.7,2,39.58333333,1782,-8462,218,-719,-421,-1744,-6161.25,-8041.906508,-1039.244954,-109.6797912,-762.9512806,203.6913175,59.74608398,64.85129395,59.98608398,66.74838135,0.045410156,0.158935547,0.045410156,-0.114690607
201,5,0.7,2,40.27777778,2074,-8918,528,-670,-613,-1764,-6198,-7872,-1086,-250,-481,792,59.75222752,64.89093211,60,66.74829218,0.006143536,0.039638162,0.013916016,-8.92E-05
201,5,0.7,2,40.97222222,1124,-10451.07466,740.2881773,-754.005848,-631.2608696,-1648,-5820,-9934,-1462,-352,-361,1242,59.71180588,64.84377352,60,66.85888889,-0.040421644,-0.047158585,0,0.110596708
201,5,0.7,2,41.66666667,174,-11660,844,-839,-637,-1532,-5626.232317,-9506.579891,-1091.592058,-364.0635145,-762.5,1665.665556,59.66776958,64.79970832,60.0244043,66.84524829,-0.044036295,-0.044065202,0.024404297,-0.013640601
201,5,0.7,2,42.36111111,550,-10082,117,-840.0010014,-522.5,-1687.316302,-5482,-8660,-358,-376,-1164,2137,59.64,64.75554271,60.06,66.78529749,-0.027769581,-0.044165614,0.035595703,-0.059950796
201,5,0.7,2,43.05555556,926,-8504,-610,-841,-408,-1872,-5352,-7538,614,-470,-741,2795,59.64,64.70418914,60.06,66.73380983,0,-0.051353564,0,-0.051487666
201,5,0.7,2,43.75,709,-8819.520923,-237.6808511,-884.8275663,-481.5,-1908.030294,-2552.544909,-6639.188712,1418.637306,-401.5,-313.8051113,2351.822877,59.64,64.7009375,60.069375,66.72,0,-0.003251642,0.009375,-0.013809825
201,5,0.7,2,44.44444444,492,-9548,302,-985,-555,-1943,1826,-6176,1838,-333,133,1792,59.64,64.75699219,60.11742188,66.72,0,0.056054688,0.048046875,0
201,5,0.7,2,45.13888889,870,-11094,578,-1203,-467,-2051,5876.397468,-6754,543.7258296,-750,754.582581,1581.677123,59.64,64.67656422,60.12,66.65161001,0,-0.08042797,0.002578125,-0.068389986
201,5,0.7,2,45.83333333,730,-11276,1084,-1245,-394,-2133,8234,-7332,-1916,-1167,1142,1488,59.64,64.54383065,60.12059841,66.57,0,-0.132733564,0.000598412,-0.081610014
201,5,0.7,2,46.52777778,832,-11202,1230,-1236,-367,-2289,5072,-6668,-4806,-1071,155,1978,59.64,64.49154081,60.16285365,66.57,0,-0.052289843,0.042255241,0
201,5,0.7,2,47.22222222,712,-10202,824,-1200,-453,-2473,1896.61167,-8609,-3575.148162,-590.1705069,-528.0892885,2648.54514,59.64,64.501875,60.18,66.5575,0,0.01033419,0.017146346,-0.0125
201,5,0.7,2,47.91666667,635.8603426,-10351.74268,670.409427,-1240.672043,-549.3121547,-2687.71724,-1632,-10550,-1166,-183,-863,3164,59.64,64.61398438,60.18,66.4934375,0,0.112109375,0,-0.0640625
201,5,0.7,2,48.61111111,552,-10702,608,-1285,-605,-2914,-6240,-7184,1918,-407,-407,3311,59.64,64.58808467,60.20735599,66.52647466,0,-0.025899702,0.027355994,0.033037159
201,5,0.7,2,49.30555556,421.9083622,-11815.25732,803,-1288.688251,-588.3737864,-3136.547126,-5334,-6852,1520,-829,359,3159,59.63932617,64.55,60.24,66.56831543,-0.000673828,-0.038084673,0.032644006,0.041840771
201,5,0.7,3,50,160,-12728,998,-1293,-555,-3360,-2585.848487,-6907.776603,-508.1013495,-1035.513063,261,3202.5,59.59391602,64.55,60.24,66.45479004,-0.045410156,0,0,-0.113525391
201,5,0.7,3,50.69444444,-1290,-12190,888,-1390,-509,-3584,-466,-7034,-2230,-1126,163,3246,59.58,64.56460411,60.24,66.42,-0.013916016,0.014604112,0,-0.034790039
201,5,0.7,3,51.38888889,-224.2811538,-11394.77993,538.6392175,-1401.346945,-546.6492308,-3806.628869,-1162.888889,-7390.100855,-1114.148148,-971.4814815,169.4814815,3117.183335,59.58,64.61732139,60.24,66.42,0,0.052717281,0,0
201,5,0.7,3,52.08333333,984,-10686,136,-1405,-621,-3982,-2457.111111,-7903.828205,958.1481481,-684.5185185,181.5185185,2846.588892,59.58,64.62,60.26735599,66.39953428,0,0.002678608,0.027355994,-0.020465721
201,5,0.7,3,52.77777778,1142.948517,-10261.24578,-137.7512864,-1385,-745.8507692,-4066.14344,-3154,-8166,2074,-530,188,2608,59.58,64.62,60.3,66.34326639,0,0,0.032644006,-0.056267886
201,5,0.7,3,53.47222222,1310,-10058,-278,-1365,-834,-4149,-2713.777778,-8017.703704,1446.074074,-559.037037,157.8246914,2466.899204,59.58,64.62,60.3,66.228619,0,0,0,-0.114647399
201,5,0.7,3,54.16666667,3182.774681,-10391.55212,-205.5450607,-1384.984295,-797.5,-4362.766294,-1896.222222,-7742.296296,279.9259259,-612.962963,90.98271605,2346.015081,59.58,64.60539589,60.30885406,66.2,0,-0.014604112,0.008854061,-0.028618995
201,5,0.7,3,54.86111111,5292,-11118,4,-1434,-761,-4519,-1456,-7594,-348,-642,23,2205,59.58,64.55267861,60.35220843,66.2,0,-0.052717281,0.043354366,0
201,5,0.7,3,55.55555556,5812,-12398,1126,-1562,-888,-4401,-1974,-8166,68,-478,-35,2009,59.58,64.55,60.39526969,66.14912169,0,-0.002678608,0.043061266,-0.050878311
201,5,0.7,3,56.25,5474,-12280,1662,-1711,-1047,-4113,-2035.88499,-8155.724668,22.41312453,-420.0866717,-1.555555556,1845.351502,59.58,64.55,60.42,66.04106515,0,0,0.024730307,-0.108056537
201,5,0.7,3,56.94444444,4876.926916,-11496.57771,1892.30393,-1666.904399,-1360.92848,-3713.739987,-2069.720273,-8127.671558,-68.50708427,-384.6964449,60.55555556,1696.369671,59.58,64.55,60.42,65.9475402,0,0,0,-0.093524951
201,5,0.7,3,57.63888889,4083.371395,-9918.401399,2070.381271,-1552.578396,-1792.241983,-3236.614324,-2080,-8086,-136,-333,94,1547,59.58,64.55,60.43460411,65.87801555,0,0,0.014604112,-0.069524647
201,5,0.7,3,58.33333333,3334.630176,-8145.524389,2185.267977,-1394.963196,-2173.684493,-2765.681499,-1820,-7982,-160,-219,35,1392,59.58,64.55,60.48732139,65.83178676,0,0,0.052717281,-0.04622879
201,5,0.7,3,59.02777778,2872,-6778,2226,-1221,-2338,-2385,-1836.33636,-8027.76,-55.792,-183.1644666,35.312,1235.401524,59.58,64.55,60.49,65.83,0,0,0.002678608,-0.001786763
201,5,0.7,3,59.72222222,2707.384298,-5995.196406,1726.3125,-990.0140816,-2052.504163,-2133.392658,-1880.849081,-8136.88,192.704,-156.5457941,36.056,1076.881909,59.58,64.55,60.49,65.82759945,0,0,0,-0.002400549
201,5,0.7,3,60.41666667,2623.33387,-5407.687387,627,-679.7776766,-1407.511102,-1942.000094,-1946.793622,-8267.12,489.296,-137.6448884,36.944,919.7615328,59.58,64.55,60.49,65.77814815,0,0,0,-0.049451303
201,5,0.7,4,61.11111111,2517.116507,-4762.334675,-472.3125,-344.9024333,-720.2624893,-1733.357484,-2027.425441,-8376.24,737.792,-124.9626551,37.688,767.3607709,59.58,64.5609375,60.49,65.76,0,0.0109375,0,-0.018148148
201,5,0.7,4,61.80555556,2286,-3806,-972,-40,-308,-1430,-2116,-8422,842,-117,38,623,59.58,64.61699219,60.49,65.76,0,0.056054688,0,0
201,5,0.7,4,62.5,412,-1790,310,218,-191,-818,-2287.574437,-8414.754098,604.560059,-113.4565018,38,493.7720729,59.61,64.62,60.49,65.795,0.03,0.003007813,0,0.035
201,5,0.7,4,63.19444444,-106,-3060,1288,537,126,-166,-2414,-8396,344,-109,38,363,59.63770405,64.62,60.49,65.83,0.02770405,0,0,0.035
201,5,0.7,4,63.88888889,-350,-3438,1572,698,146,412,-2046,-8336,316,-72,58,209,59.59251781,64.62,60.49,65.83,-0.045186241,0,0,0
201,5,0.7,4,64.58333333,-13,-3849.982759,1117.969517,924.0526149,195.4644907,1026.161297,-1828,-8314,376,-38,49,119,59.58,64.63167666,60.49,65.84855469,-0.01251781,0.011676665,0,0.018554688
201,5,0.7,4,65.27777778,324,-4086,412,1178,278,1678,-1736.025283,-8254.66279,334.5185185,-14.21063898,39.27825224,84.64138678,59.58,64.68548403,60.49,65.90910156,0,0.053807368,0,0.060546875
201,5,0.7,4,65.97222222,210,-3862,-44,1426,425,2394,-1675.34404,-8161.341285,257.4814815,6.178744108,28.71497442,62.70530878,59.58,64.7273101,60.49,65.91,0,0.041826071,0,0.000898437
201,5,0.7,4,66.66666667,414.5026178,-3690.809215,-271.8614271,1615.256707,628.3359988,2928.831783,-1564,-8066,216,33,16,38,59.58,64.76820912,60.49,65.91267861,0,0.040899016,0,0.002678608
201,5,0.7,4,67.36111111,706,-3604,-442,1781,819,3402,-1136,-7978,434,80,-2,3,59.58,64.80909766,60.49,65.96539589,0,0.040888546,0,0.052717281
201,5,0.7,4,68.05555556,883.4973822,-3883.399122,-618.4128712,1942.410919,963.0866013,3877.848536,-1027.907213,-8006.199275,398,105.6770833,2.0625,16.38983051,59.58,64.85170578,60.49,65.96376465,0,0.042608111,0,-0.00163124
201,5,0.7,4,68.75,974,-4374,-752,2085,1037,4318,-958,-8064,362,120,8,43,59.58,64.89573269,60.49,65.91078613,0,0.044026912,0,-0.052978516
201,5,0.7,4,69.44444444,876,-4832,-818,2196,1001,4694,-860.3584337,-8173.800725,598,125.6666667,11.9375,73.67399928,59.58,64.9373101,60.45191533,65.91,0,0.041577415,-0.038084673,-0.000786133
201,5,0.7,4,70.13888889,1034.45618,-5454.729961,-825.5692042,2324.744584,880.7268111,5159.679304,-804,-8254,834,128,14,121,59.58,64.97776723,60.42,65.90693873,0,0.040457128,-0.031915327,-0.003061266
201,5,0.7,4,70.83333333,1304,-6046,-828,2429,690,5642,-928,-8100,658,103,0,225,59.58,65.01379502,60.42,65.84669041,0,0.036027785,0,-0.060248321
201,5,0.7,4,71.52777778,1572.688331,-6409.011917,-643,2484.858352,447.759021,6078.093643,-856,-7912,770,111,2,237,59.58,65.09923949,60.40608398,65.8409403,0,0.085444471,-0.013916016,-0.005750116
201,5,0.7,4,72.22222222,1766,-6764,-458,2518,163,6489,-861.8878505,-7932.521395,792.1319069,90.31023965,7.512399356,288.3170272,59.58,65.25230214,60.36067383,65.90287161,0,0.153062658,-0.045410156,0.06193131
201,5,0.7,4,72.91666667,1812,-7288,-720,2531,-133,6867,-877.1090343,-7981.931679,803.0248487,46.73159041,16.00064412,375.3787352,59.58,65.29818264,60.36,66.02248808,0,0.045880498,-0.000673828,0.119616469
201,5,0.7,4,73.61111111,1598,-7861.704554,-1373.079449,2559.69579,-396.0757657,7142.862611,-898,-8042,822,8,24,453,59.58,65.34343509,60.35742188,66.13429147,0,0.045252443,-0.002578125,0.111803392
201,5,0.7,4,74.30555556,1384,-8376,-1854,2598,-544,7344,-943.1759852,-8141.475728,911.3140655,-14.5663042,29.90623819,502.2419502,59.58,65.44013288,60.309375,66.19281623,0,0.096697796,-0.048046875,0.058524761
201,5,0.7,4,75,1605.222866,-8679.635667,-1811.521084,2648.768333,-557.3111888,7468.524851,-1011.571077,-8264.071197,1046.323699,-33.97966722,35.41247637,545.1465659,59.58,65.49444265,60.3,66.17124749,0,0.054309764,-0.009375,-0.021568738
201,5,0.7,4,75.69444444,1916,-9044,-1710,2681,-562,7564,-1070,-8324,1116,-59,42,598,59.58,65.52898395,60.3,66.06715752,0,0.034541301,0,-0.104089971
201,5,0.7,4,76.38888889,2058,-10078,-1468,2665,-383,7646,-1102.090915,-8288.64,1100.78914,-101.7885442,50.2509702,676.8819695,59.58,65.63996308,60.3,65.98503122,0,0.110979137,0,-0.082126304
201,5,0.7,4,77.08333333,1840,-10647.02143,-1165.5,2627.741528,-76.25954813,7554.525867,-1121.891851,-8204.32,1062.287419,-161.5530872,59.84659679,778.6580353,59.58202942,65.78155162,60.3,65.90397015,0.002029421,0.141588533,0,-0.081061065
201,5,0.7,4,77.77777778,1622,-10962,-984,2572,322,7370,-1141.847328,-8103.68,1011.191128,-227.623358,70.91673829,890.7931163,59.62498119,65.8747119,60.3,65.84351081,0.042951766,0.093160285,0,-0.060459338
201,5,0.7,4,78.47222222,1877.62963,-11085.44242,-1386.888889,2502.704431,815.6261386,7119.871284,-1174.401871,-8019.36,958.196558,-289.3290858,83.59125319,1000.752132,59.6551531,65.96750656,60.29897972,65.81712818,0.030171908,0.092794654,-0.001020276,-0.026382636
201,5,0.7,4,79.16666667,2352.37037,-11167.94343,-2135.111111,2414.664141,1375.145853,6787.589324,-1232,-7984,914,-336,98,1096,59.67860456,66.06900242,60.29304468,65.80139956,0.023451467,0.101495862,-0.005935046,-0.015728622
201,5,0.7,4,79.86111111,2608,-11198,-2538,2309,1855,6442,-1650,-8098,880,-365,118,1172,59.69520845,66.15647343,60.28242572,65.79006224,0.016603891,0.087471016,-0.010618962,-0.011337316
201,5,0.7,4,80.55555556,2586,-10754,-1949.723724,2173.531987,2277.875413,6079.44637,-1384,-8206,994,-445,160,1178,59.69936556,66.20671859,60.2678259,65.77992676,0.004157103,0.050245159,-0.01459982,-0.010135482
201,5,0.7,4,81.25,2564,-10310,-1034,1999,2505,5744,-1422,-7954,1164,-448,164,1224,59.68196844,66.23749765,60.24994828,65.76780364,-0.017397112,0.030779063,-0.017877618,-0.012123122
201,5,0.7,4,81.94444444,3228,-10741,-290.2762763,1755.216965,2267.825587,5509.039218,-1505.76194,-7835.508264,1137.109461,-469.7848095,177.7272477,1256.088191,59.65555556,66.26013204,60.22369294,65.74929627,-0.026412889,0.022634385,-0.026255337,-0.018507367
201,5,0.7,4,82.63888889,3892,-11172,126,1493,1860,5290,-1641.464103,-7741.785124,1063.12523,-517.4575118,201.9933811,1283.159229,59.64016195,66.26991059,60.16558753,65.72100936,-0.015393605,0.009778554,-0.058105411,-0.028286911
201,5,0.7,4,83.33333333,3852,-11154,88,1280,1502,5032,-1818.434214,-7680.169421,952.078384,-578.9014582,229.262824,1306.400652,59.66478093,66.27,60.09772951,65.69652966,0.02461898,8.94E-05,-0.067858023,-0.024479695
201,5,0.7,4,84.02777778,3822,-10584,22,1014,923,4581,-2026,-7658,814,-642,252,1327,59.7177751,66.27659475,60.04643059,65.69,0.052994172,0.006594749,-0.051298918,-0.006529664
201,5,0.7,4,84.72222222,3910,-10198,-116,873,605,4233,-2340,-8394,538,-713,268,1344,59.79570238,66.33879707,60.00535176,65.69,0.077927279,0.06220232,-0.041078827,0
201,5,0.7,4,85.41666667,3657.481481,-9741.393101,-477.9906329,758.7864692,529.4303598,3690.338265,-2253.959203,-8444.577356,706,-752.6361078,292.6405008,1343,59.84896804,66.30713413,60,65.71000407,0.053265663,-0.031662935,-0.005351762,0.020004071
201,5,0.7,4,86.11111111,3188.518519,-9260.355905,-955.7730942,658.1909692,484.1040688,3024.820688,-2082,-8460,874,-789,324,1342,59.87966212,66.20149603,60,65.75930185,0.030694077,-0.105638103,0,0.049297781
201,5,0.7,4,86.80555556,2936,-8862,-1194,573,469,2410,-1848,-7998,726,-841,363,1363,59.8444043,66.3720459,59.9644043,65.76,-0.035257824,0.170549867,-0.035595703,0.000698148
201,5,0.7,4,87.5,2980,-8594,-1030,507,604,1922,-1867.321244,-7928.902879,544.3371298,-879.9819354,391.5727352,1372.217564,59.82336017,66.47186444,59.94,65.76,-0.021044125,0.099818543,-0.024404297,0
201,5,0.7,4,88.19444444,3193.855884,-8375.25726,-887.510408,387.0278752,753.7864998,1360.675575,-1914,-7892,436,-914,414,1381,59.86308938,66.30080806,59.94,65.76,0.039729206,-0.171056381,0,0
201,5,0.7,4,88.88888889,3518,-8146,-812,240,865,793,-2087.678756,-7860.823529,436,-948.1869135,434.320122,1398.919655,59.90750971,66.33960938,59.94,65.76,0.044420334,0.038801315,0,0
201,5,0.7,4,89.58333333,3824.995499,-7839.639635,-838.7966102,91.80563897,914.4540663,273.4231654,-2234,-7828,436,-977,445,1420,59.94,66.49,59.94,65.76,0.032490288,0.150390625,0,0
201,5,0.7,4,90.27777778,4150,-7482,-880,-51,936,-213,-1888,-7768,788,-996,437,1438,59.94,66.35004822,59.94,65.80080933,0,-0.139951781,0,0.040809328
201,5,0.7,4,90.97222222,4562.935901,-6971.482667,-900.9385677,-175.7889952,880.6549296,-679.7301457,-1622,-7708,864,-1042,481,1460,59.94257813,66.17680361,59.94257813,65.82699219,0.002578125,-0.173244607,0.002578125,0.02618286
201,5,0.7,4,91.66666667,4826,-6646,-930,-281,762,-1080,-2302,-8184,764,-1061,545,1606,59.990625,66.07801698,59.990625,65.7709375,0.048046875,-0.098786629,0.048046875,-0.056054687
201,5,0.7,4,92.36111111,4839.128128,-6916.866056,-1063.507899,-351.1247467,497.8450704,-1433.187633,-2250,-8746,898,-1067,747,1630,59.98101563,66.02206703,60,65.85175781,-0.009609375,-0.055949955,0.009375,0.080820313
201,5,0.7,4,93.05555556,4854,-7828,-1386,-427,297,-1620,-2922,-11170,1070,-1098,971,1600,59.94,65.98,60,66.05,-0.041015625,-0.042067028,0,0.198242187
201,5,0.7,4,93.75,5326,-27050,-2726,-572,998,-1502,-2202.296296,-10505.77778,619.4074074,-1175.604003,920.2009155,1673.010997,59.97785874,65.88958928,60,66.05,0.037858742,-0.090410716,0,0
201,5,0.7,4,94.44444444,6024,-1582,5352,348,1694,-2422,-865.7037037,-9272.222222,-217.4074074,-1293.949578,819.8462755,1832.688661,60,65.81460082,60,66.04957926,0.022141258,-0.07498846,0,-0.000420736
201,5,0.7,4,95.13888889,2894,-6552,2386,-284,-608,-1928,-146,-8608,-668,-1413,748,1990,60,65.77508996,60,66.04292248,0,-0.039510867,0,-0.006656788
201,5,0.7,4,95.83333333,-734.9218514,-6071.851852,-402.2200563,-494.1933611,-648.8733657,-1972.444367,-448.1428907,-9452.267606,-466.3912776,-1511.741428,719.1073034,2125.207082,60.01428637,65.70416723,60,66.03042213,0.014286369,-0.070922731,0,-0.012500348
201,5,0.7,4,96.52777778,-4287.238703,-5180.148148,-2910.665584,-629.2633472,-669.3811273,-2088.222067,-990,-10870,20,-1627,706,2237,60.05631324,65.61612505,60,66.015,0.042026868,-0.088042178,0,-0.015422128
201,5,0.7,4,97.22222222,-5888,-4700,-4000,-677,-675,-2249,-1528,-12030,1218,-1810,717,2299,60.10168269,65.56833753,60,65.99957787,0.04536945,-0.047787521,0,-0.015422128
201,5,0.7,4,97.91666667,-4157.197882,-7187,-2984.692372,-502.076544,333,-2612.248011,-1680,-12090,1472,-1821,784,2471,60.12,65.526815,60,65.98707752,0.018317313,-0.041522525,0,-0.012500348
201,5,0.7,4,98.61111111,-846,-9674,-862,-144,1341,-3028,-1088,-11734,976,-1827,850,2643,60.12,65.48286501,60,65.98042074,0,-0.043949992,0,-0.006656788
201,5,0.7,4,99.30555556,3120,-9306,2440,379,1015,-3256,-892.1161802,-11903.46168,1184.962963,-1831.664236,913.1895835,2839.849032,60.12,65.4408711,60,65.99631127,0,-0.041993915,0,0.015890534
201,5,0.7,4,100,5390,-8596,3370,176,277,-3031,-766.3914234,-12286.2567,1573.037037,-1836.461009,974.2584562,3057.077724,60.12,65.4,60,66.05,0,-0.040871096,0,0.053688729
201,5,0.7,1,0,5276,-7280,1058,-548,-585,-2506,-722,-12694,1782,-1846,1031,3302,60.12,65.35926121,59.96214126,66.14056677,0,-0.040738791,-0.037858742,0.090566771
201,5,0.7,1,0.67114094,1626,-7568,-1418,-802,-788,-2472,-772,-13084,1138,-1914,1081,3604,60.12,65.31695233,59.94,66.21522374,0,-0.042308879,-0.022141258,0.074656974
201,5,0.7,1,1.342281879,246.4305913,-8236.571429,-2435.031991,-506.5,-239,-2859.5,-552,-12812,734,-1936,1087,3751,60.12,65.27178895,59.94,66.25366465,0,-0.045163384,0,0.038440902
201,5,0.7,1,2.013422819,-314,-8720,-2858,-211,310,-3247,-294.8526316,-11990.79632,653.9734889,-1853.078125,1160.93873,3941.850379,60.12,65.22550677,59.94,66.30590753,0,-0.046282173,0,0.052242888
201,5,0.7,1,2.684563758,420.7407407,-8473.703704,-1727.62963,-269.0740741,171.8148148,-3013.55547,-144,-11358,626,-1762,1291,4153,60.12,65.18,59.94,66.35,0,-0.045506774,0,0.044092466
201,5,0.7,1,3.355704698,1785.259259,-8016.296296,371.6296296,-376.9259259,-84.81481481,-2537.666496,-935.5735061,-11399.30394,708.555952,-1748.921875,1432.16063,4419.382671,60.12,65.13555424,59.94,66.35,0,-0.044445763,0,0
201,5,0.7,1,4.026845638,2520,-7770,1502,-435,-223,-2156,-2332,-11494,868,-1744,1598,4582,60.12,65.09404084,59.93487089,66.35598396,0,-0.041513395,-0.005129112,0.005983964
201,5,0.7,1,4.697986577,2507.576127,-7863.303571,1368.875,-368.4375,-201.5079051,-1964.027176,-3883.709611,-11786.56614,1039.601406,-1757.90625,1767.656937,4543.271385,60.12,65.05595916,59.89612218,66.40119079,0,-0.038081684,-0.038748705,0.045206823
201,5,0.7,1,5.369127517,2469.869671,-8073.809524,1076,-222,-153.187747,-1814.488752,-5724.852988,-12291.39212,1249.327558,-1788.5,1945.917998,4434.557027,60.12,65.01434203,59.85273401,66.44524782,0,-0.041617131,-0.043388169,0.044057031
201,5,0.7,1,6.040268456,2406.22838,-8297.410714,783.125,-75.5625,-102.2737154,-1679.955952,-7263.56987,-12769.52205,1500.889931,-1819.09375,2152.47006,4267.064155,60.12,64.97,59.82,66.49,0,-0.044342027,-0.032734014,0.044752183
201,5,0.7,1,6.711409396,2316,-8430,650,-9,-73,-1533,-7908,-12982,1798,-1833,2407,4052,60.12,64.92594232,59.82,66.55125,0,-0.04405768,0,0.06125
201,5,0.7,1,7.382550336,1982,-8466,782,-13,-66,-1366,-5343.603419,-11646.2219,2340.280269,-1701.973992,2902.270293,3562.083975,60.12,64.88027094,59.82,66.57,0,-0.045671379,0,0.01875
201,5,0.7,1,8.053691275,2366,-8142,570,12,-22,-1174,-2570,-9158,2722,-1436,3255,2816,60.12,64.8339202,59.82,66.57,0,-0.04635074,0,0
201,5,0.7,1,8.724832215,2322.305683,-7970.820459,731.3300971,34.75,-46.5,-909.2830467,-2324.192818,-6085.836983,2057.659109,-1037.327025,3095.157983,1683.637512,60.12,64.83,59.82,66.58838456,0,-0.0039202,0,0.018384558
201,5,0.7,1,9.395973154,2232,-7894,918,47,-71,-663,-2116,-3356,796,-593,2731,925,60.12,64.83,59.82,66.64,0,0,0,0.051615442
201,5,0.7,1,10.06711409,2113.943402,-7905.1227,962.3020496,45.57904246,-66.07407407,-514.4629319,-1446.141798,-2117.664301,-1075.659109,-282.2344046,1819.162017,984.5,60.12,64.83,59.82,66.69792523,0,0,0,0.057925232
201,5,0.7,2,10.73825503,1945.590847,-7942.023179,991.4843581,41.71364047,-56.92592593,-396.352835,-710,-1108,-2350,39,875,1044,60.12,64.84291992,59.81446289,66.72,0,0.012919922,-0.005537109,0.022074768
201,5,0.7,2,11.40939597,1726,-8010,1002,36,-52,-263,-332,88,-1108,498,535,487,60.12,64.95708008,59.76553711,66.72,0,0.114160156,-0.048925781,0
201,5,0.7,2,12.08053691,1362,-8624,786,22,-82,-85,738.7642237,-292.553816,443.3888392,851.7114042,382.2283465,-126.0793786,60.1444043,64.97,59.7844043,66.77111463,0.024404297,0.012919922,0.018867187,0.051114632
201,5,0.7,2,12.75167785,1670,-8162,814,8,-72,-50,1552,-1028,1374,1166,317,-776,60.18,64.97069815,59.81940159,66.8755437,0.035595703,0.000698148,0.034997291,0.104429065
201,5,0.7,2,13.42281879,1578,-8272,618,7,-74,68,646.0776398,-2111.240233,925.3611354,1473.472336,377.5294118,-1483.525058,60.18,65.01999593,59.77714635,66.91683395,0,0.049297781,-0.042255241,0.041290252
201,5,0.7,2,14.09395973,1526,-8202,634,13,-59,92,-424,-2978,156,1761,464,-2165,60.18,65.04,59.76,66.96147663,0,0.020004071,-0.017146346,0.044642678
201,5,0.7,2,14.76510067,906,-8000,394,37,-64,105,-638,-3154,-514,2020,506,-2720,60.18,65.04,59.76,67.01532017,0,0,0,0.053843544
201,5,0.7,2,15.43624161,860,-8148,436,67,-77,119,-352,-3479.78222,-831.9764398,2331.075463,395.3370787,-3163.560845,60.18,65.06583147,59.76,67.02,0,0.025831468,0,0.004679829
201,5,0.7,2,16.10738255,818.1176802,-8234.915254,529.2860406,66.26589137,-79.00164105,113.3674419,-66,-3788,-970,2674,170,-3562,60.18,65.11,59.76,67.02,0,0.044168532,0,0
201,5,0.7,2,16.77852349,780.2453766,-8311.579661,671.6067957,64.07767412,-80.01114195,97.90232558,-626,-3926,-900,3043,-154,-3940,60.16608398,65.0863275,59.80101563,67.05691406,-0.013916016,-0.0236725,0.041015625,0.036914063
201,5,0.7,2,17.44966443,740.514233,-8372.786441,822.8845305,60.45651118,-80.61982234,74.75348837,-740.6714286,-4424.748242,-727.0631068,3206.684916,-361.2182042,-4301.439,60.13898438,65.03349296,59.82,67.10971069,-0.027099609,-0.052834545,0.018984375,0.052796625
201,5,0.7,2,18.12080537,693.0553929,-8413.328814,943.0415102,55.4235655,-81.41900181,46.06976744,-810,-5148,-600,3318,-502,-4627,60.12067383,64.9787708,59.82,67.16086765,-0.018310547,-0.05472216,0,0.051156967
201,5,0.7,2,18.79194631,632,-8428,992,49,-83,14,-884,-5852,-650,3408,-578,-4885,60.12,64.93069781,59.82,67.19886169,-0.000673828,-0.048072983,0,0.037994035
201,5,0.7,2,19.46308725,536.0353162,-8328.178,897,22.26787806,-89.04225352,-32.87305648,-1022,-7016,-770,3517,-668,-5263,60.12,64.9,59.82,67.24,0,-0.030697812,0,0.04113831
201,5,0.7,2,20.13422819,400,-8166,802,-4,-94,-102,-1214.293269,-7518.241976,-875.074936,3619.961566,-735.0167303,-5556.896897,60.07898438,64.9,59.82,67.335332,-0.041015625,0,0,0.095331996
201,5,0.7,2,20.80536913,150.5121951,-8015.822,972.8657874,-7.320568316,-88.89285714,-216.6772312,-1442.782051,-7902.051145,-972.1119172,3722.109008,-790.0817427,-5818.061121,60.0684022,64.89324139,59.82,67.43633302,-0.010582177,-0.006758606,0,0.101001027
201,5,0.7,2,21.47651007,-24,-7928,1196,-11,-81,-336,-1644.879808,-8155.834742,-1070.09294,3805.951946,-850.3558838,-6045.944785,60.11505394,64.84437544,59.82,67.5230236,0.04665174,-0.048865952,0,0.086690574
201,5,0.7,2,22.14765101,44,-8020,1272,-42,-76,-408,-1758,-8268,-1178,3854,-933,-6240,60.11559096,64.79476353,59.82,67.62089801,0.000537022,-0.049611908,0,0.097874408
201,5,0.7,2,22.81879195,177.8807543,-7987.8125,1198.25,-74.94394213,-77.5625,-488.3448794,-1786.714642,-8288.189946,-1336.966019,3872.612036,-1090.317515,-6398.088695,60.09762396,64.73764795,59.82,67.73125196,-0.017966998,-0.057115585,0,0.110353958
201,5,0.7,2,23.48993289,361.6162261,-7917,1036,-109.124774,-81,-573.9748474,-1818,-8312,-1438,3885,-1266,-6530,60.07270898,64.69639789,59.82,67.8267211,-0.024914979,-0.041250057,0,0.095469133
201,5,0.7,2,24.16107383,524.0435848,-7846.1875,873.75,-141.7432188,-84.4375,-654.3673917,-1954,-8570,-1412,3895,-1385,-6642,60.0422559,64.69,59.81222752,67.88712235,-0.03045308,-0.006397892,-0.007772479,0.06040125
201,5,0.7,2,24.83221477,594,-7814,800,-170,-86,-719,-2006,-8930,-1160,3853,-1516,-6796,60.00341761,64.69,59.77180588,67.92703861,-0.038838294,0,-0.040421644,0.039916266
201,5,0.7,2,25.5033557,528,-8732,810,-192,-68,-763,-2140.690668,-9600.877956,-916.7945104,3795.306963,-1606.992349,-6883.832245,60,64.71847168,59.72776958,67.8364502,-0.00341761,0.02847168,-0.044036295,-0.090588418
201,5,0.7,2,26.17449664,782,-8556,888,-222,-63,-851,-2317.789779,-10391.10564,-695.5749051,3729.938967,-1683.463418,-6949.934273,60,64.76,59.7,67.7,0,0.04152832,-0.027769581,-0.136450195
201,5,0.7,2,26.84563758,1032,-8156,1028,-255,-68,-931,-2406,-10772,-598,3675,-1772,-7008,60,64.76,59.7,67.7,0,0,0,0
201,5,0.7,2,27.51677852,1080,-8486,912,-282,-88,-963,-2327.507937,-10726.03056,-596.5334293,3634.325171,-1890.844189,-7073.653054,59.98748219,64.77460411,59.72015062,67.69134284,-0.01251781,0.014604112,0.020150621,-0.008657156
201,5,0.7,2,28.18791946,1200.669895,-8336.148148,795.9834711,-304.1368588,-94.8192786,-967.6213378,-2176,-10638,-596,3604,-2026,-7110,59.94229595,64.82732139,59.8080806,67.64159904,-0.045186241,0.052717281,0.087929982,-0.049743803
201,5,0.7,2,28.8590604,1357.890503,-8057.851852,688.9917355,-323.0128738,-98.98052053,-970.1995578,-1939.492063,-10503.96944,-728.7400722,3588.173146,-2169.093845,-7064.814649,59.94,64.80629147,59.85087319,67.57188158,-0.00229595,-0.021029921,0.042792591,-0.06971746
201,5,0.7,2,29.53020134,1436,-7908,642,-331,-104,-971,-1776,-10412,-928,3570,-2319,-6962,59.94,64.75565439,59.88372481,67.45397421,0,-0.050637085,0.032851618,-0.117907367
201,5,0.7,2,30.20134228,1136,-7974,798,-307,-112,-921,-1777.336862,-10501.34282,-1072.259928,3515.006974,-2455.117044,-6764.600217,59.94,64.7043619,59.9276898,67.16418644,0,-0.051292489,0.043964991,-0.289787776
201,5,0.7,2,30.87248322,1242,-7097,630.4057971,-454.5,-213.3793103,-882.5434783,-1782,-10704,-1150,3421,-2625,-6441,59.94,64.69,59.94,66.97044932,0,-0.014361897,0.012310197,-0.193737118
201,5,0.7,2,31.54362416,1348,-6220,406,-602,-308,-863,-2038,-11110,-1084,3262,-2952,-5893,59.94,64.69,59.94,66.8834174,0,0,0,-0.087031919
201,5,0.7,2,32.2147651,1141.420256,-7122,297.5942029,-541.5,-278.638009,-897.4215481,-2401.759578,-12023.18182,-642.0223457,2993.238375,-3278.722613,-5381.843288,59.91,64.66348745,59.91,66.81695652,-0.03,-0.026512554,-0.03,-0.066460879
201,5,0.7,2,32.88590604,912,-8024,246,-481,-245,-947,-2850,-12678,-244,2623,-3516,-4827,59.88,64.61156839,59.88229595,66.79306127,-0.03,-0.051919053,-0.02770405,-0.023895256
201,5,0.7,2,33.55704698,879.8239519,-8021.337232,547.2592593,-498.7022222,-237.5694654,-971.4910183,-3446.666495,-11113,-230.5944056,2097.435895,-3629.11348,-4088.638333,59.88,64.57045736,59.92748219,66.85330959,0,-0.041111033,0.045186241,0.060248321
201,5,0.7,2,34.22818792,862.1019201,-8012.007797,1106.740741,-539.7377778,-232.7291771,-991.1061649,-3996,-9548,-226,1497,-3679,-3295,59.88,64.53083656,59.94,66.87,0,-0.039620804,0.01251781,0.016690413
201,5,0.7,2,34.89932886,840,-7994,1408,-586,-231,-1016,-4296,-10772,-1396,944,-3600,-2576,59.88,64.49037248,59.94,66.87,0,-0.040464075,0,0
201,5,0.7,2,35.5704698,802,-7666,1328,-637,-264,-1057,-5616,-10988,-1306,462,-3388,-1577,59.82528801,64.40385915,59.96735599,66.84255946,-0.054711989,-0.086513332,0.027355994,-0.027440538
201,5,0.7,2,36.24161074,806,-8376,834,-699,-293,-1167,-5576,-10584,-1204,190,-3159,-878,59.76,64.3423584,60,66.78523001,-0.065288011,-0.061500751,0.032644006,-0.057329452
201,5,0.7,2,36.91275168,964,-7768,860,-712,-292,-1297,-5779.008,-10451.35738,-1065.73742,-126.5953519,-2792.401858,64.72499411,59.76,64.50129395,60,66.73136619,0,0.158935547,0,-0.053863817
201,5,0.7,2,37.58389262,1051.918232,-8043.351171,831.8421053,-766.8693906,-316.1161972,-1401.729155,-6263.104,-10384.84635,-895.2922613,-487.4147709,-2303.705642,1214.685618,59.76,64.53376465,60.01391602,66.73149937,0,0.032470703,0.013916016,0.000133178
201,5,0.7,2,38.25503356,1142,-8408,780,-830,-364,-1494,-6840.896,-10335.85662,-651.1783919,-826.6365139,-1716.008497,2332.483746,59.76,64.48078613,60.05932617,66.78533897,0,-0.052978516,0.045410156,0.053839603
201,5,0.7,2,38.9261745,1360.001551,-8526.613591,712.2807018,-858.4848654,-419.8114452,-1595.735824,-7324.992,-10255.77793,-291.9096817,-1078.438838,-1052.407568,3178.721249,59.73922654,64.49211785,60.06,66.83991973,-0.020773458,0.011331718,0.000673828,0.054580755
201,5,0.7,2,39.59731544,1637.222998,-8605.274749,636.1403509,-879.5814133,-493.9327497,-1691.534579,-7528,-10096,224,-1177,-336,3514,59.68946061,64.52114797,60.06067383,66.86831543,-0.049765927,0.029030124,0.000673828,0.028395701
201,5,0.7,2,40.26845638,1774,-8764,600,-906,-589,-1734,-4560,-9154,2384,-826,574,2866,59.64702219,64.54590372,60.10608398,66.75479004,-0.042438429,0.02475575,0.045410156,-0.113525391
201,5,0.7,2,40.93959732,1482.925856,-10909.6907,998,-947.2250206,-783.6047297,-1600.5,-4998,-11362,1636,-755,1281,3179,59.64,64.53980114,60.12,66.72,-0.007022186,-0.006102587,0.013916016,-0.034790039
201,5,0.7,2,41.61073826,736,-12936,1396,-998,-925,-1467,770,-9190,4360,-567,2334,2659,59.64,64.48928648,60.12,66.72,0,-0.050514656,0,0
201,5,0.7,2,42.28187919,-1574,-11710,1094,-1057,-787,-1574,4146,-7290,3396,-789,3301,2471,59.64,64.44526255,60.129375,66.7309375,0,-0.044023928,0.009375,0.0109375
201,5,0.7,2,42.95302013,-752,-10744,-572,-1075,-572,-1787,5249.228956,-6782.679631,-215.0702599,-1005.306057,2966.45816,2499.606188,59.64,64.40029297,60.1555957,66.76152832,0,-0.044969585,0.026220703,0.03059082
201,5,0.7,2,43.62416107,-547.3555754,-10295.43089,-531.0573711,-1072.407407,-673.3703704,-1896.119365,5955.281145,-6471.673149,-5453.201797,-1202.708584,2129.249654,2580.212376,59.64,64.34765625,60.17742188,66.78699219,0,-0.052636719,0.021826172,0.025463867
201,5,0.7,2,44.29530201,-423.5666766,-9980.715447,-424.7814089,-1067.592593,-861.6296296,-1975.177901,6204,-6366,-8130,-1289,1039,2705,59.64,64.35431463,60.18,66.75111111,0,0.006658382,0.002578125,-0.035881076
201,5,0.7,2,44.96644295,-382,-9862,-278,-1065,-963,-2080,3628,-7664,-4030,-533,-731,3072,59.64,64.40305603,60.18,66.64514403,0,0.048741393,0,-0.105967078
201,5,0.7,2,45.63758389,-528,-11109.32463,54.38926053,-1076.630919,-790.5,-2267.035806,-128.4765806,-8134.475112,-232.7675279,-386.4564288,-638.1047041,3001.081489,59.630625,64.42945171,60.18,66.715,-0.009375,0.026395687,0,0.069855967
201,5,0.7,2,46.30872483,-674,-12376,416,-1093,-618,-2497,-4159.682735,-8443.126445,3163.282903,-301.4504366,-413.4316304,2844.3852,59.6044043,64.44836972,60.18257813,66.78208837,-0.026220703,0.018918012,0.002578125,0.06708837
201,5,0.7,3,46.97986577,-546.1875,-12408.70709,588.7548973,-1100.248373,-620.0424223,-2733.769923,-6042,-8554,4634,-274,-138,2686,59.58257813,64.46921792,60.230625,66.62023037,-0.021826172,0.020848198,0.048046875,-0.161857995
201,5,0.7,3,47.65100671,-265,-12430.35075,708.8119316,-1105.102671,-626.2797927,-2986.884343,-3512.357034,-8060,1524.875595,-549.5,343.4511254,2519.699992,59.58,64.50741296,60.24,66.53889314,-0.002578125,0.038195038,0.009375,-0.081337238
201,5,0.7,3,48.32214765,16.1875,-12442.31903,830.4630001,-1110.655633,-636.8772668,-3237.05659,-926,-7566,-1612,-825,688,2419,59.58,64.54946513,60.24,66.49652159,0,0.042052172,0,-0.042371543
201,5,0.7,3,48.99328859,144,-12446,1008,-1120,-652,-3465,-839.6429664,-8284,-1653.875595,-592.9221832,330,2475.682203,59.58,64.55,60.26473031,66.37055731,0,0.000534866,0.024730307,-0.125964284
201,5,0.7,3,49.66442953,-467,-12310.90303,1441.894316,-1151.949101,-734.1807843,-3649.167885,-810,-9002,-1668,-280,-28,2566,59.58,64.55267861,60.30779157,66.25853203,0,0.002678608,0.043061266,-0.112025283
201,5,0.7,3,50.33557047,-1078,-11952,1764,-1191,-872,-3846,-1668,-7976,1556,-158,129,2629,59.58,64.60539589,60.35114594,66.21938112,0,0.052717281,0.043354366,-0.039150909
201,5,0.7,3,51.00671141,-14,-10674,720,-1213,-1021,-4137,-3236,-9202,3284,-248,107,2280,59.58,64.60376465,60.36,66.17918154,0,-0.00163124,0.008854061,-0.04019958
201,5,0.7,3,51.67785235,694.0009114,-10444.08133,406.8322038,-1209.62963,-1093.61918,-4346.934658,-2496.450826,-8991.331933,2463.451251,-492.8219895,171.5,1993.657464,59.58,64.55078613,60.36,66.12752229,0,-0.052978516,0,-0.051659252
201,5,0.7,3,52.34899329,1306.105719,-10312.15178,210.1938797,-1203.37037,-1145.30959,-4520.335893,-1338,-8554,930,-677,236,1806,59.5444043,64.55,60.36,65.9344522,-0.035595703,-0.000786133,0,-0.193070085
201,5,0.7,3,53.02013423,2326,-10270,142,-1200,-1165,-4643,-572,-7888,-786,-547,45,1745,59.52444444,64.55,60.36444444,65.83,-0.019959852,0,0.004444444,-0.104452201
201,5,0.7,3,53.69127517,5490,-13470,932,-1463,-1154,-4713,-964,-7881.876592,-381.5555556,-422.869525,28.99410609,1654.410331,59.56868313,64.55,60.40868313,65.83,0.044238683,0,0.044238683,0
201,5,0.7,3,54.36241611,6064,-13488,1382,-1536,-1273,-4370,-1692,-7878.827185,369.5555556,-307.16166,20.49705305,1541.850465,59.58,64.55,60.40608398,65.7975293,0.011316872,0,-0.002599143,-0.032470703
201,5,0.7,3,55.03355705,5288,-12074,1486,-1457,-1553,-4179,-2084,-7878,774,-228,18,1423,59.58,64.55,60.36067383,65.69157227,0,0,-0.045410156,-0.105957031
201,5,0.7,3,55.70469799,4480,-10622,1898,-1395,-1796,-3939,-1658,-7926.436754,586.9803922,-193.6581044,20.5,1296.655927,59.58,64.55,60.36,65.69,0,0,-0.000673828,-0.001572266
201,5,0.7,3,56.37583893,3408.555579,-8814.751488,1853.866745,-1326.040765,-2174.549025,-3415.13257,-1232,-8058,272,-157,23,1170,59.58,64.55,60.36,65.69300781,0,0,0,0.003007813
201,5,0.7,3,57.04697987,2666,-6786,1748,-1246,-2427,-2729,-1728,-8574,12,-52,-16,1059,59.58,64.55,60.36,65.7490625,0,0,0,0.056054688
201,5,0.7,3,57.71812081,2511.145464,-4018.305662,1507.511859,-1152.53467,-2441.111154,-1857.884996,-1794.382748,-8531.525168,231.375,-35.59375,-14.56617647,943.6586471,59.58,64.56431644,60.36494606,65.75422959,0,0.014316437,0.004946061,0.005167095
201,5,0.7,3,58.38926174,2452,-2286,1050,-1024,-2446,-1313,-1837.562443,-8420.067114,714,-24.77777778,-10.17647059,825.9306731,59.58,64.62,60.38735599,65.72808467,0,0.055683563,0.022409933,-0.026144922
201,5,0.7,4,59.06040268,2546,-2782,-474.3786044,-791.1241706,-1568.546548,-1559.5,-1860.960916,-8263.575503,1196.625,-18.82291667,-2.698529412,701.7373626,59.58,64.69886832,60.4115978,65.69980256,0,0.078868323,0.024241807,-0.028282109
201,5,0.7,4,59.73154362,2640,-3278,-1720,-460,-375,-1806,-1868,-8086,1416,-17,8,567,59.58,64.77153599,60.42,65.6920795,0,0.072667668,0.008402198,-0.007723067
201,5,0.7,4,60.40268456,490,-1672,-350,-10,107,-1099,-1294,-7822,1186,-33,50,410,59.58,64.82323957,60.42,65.73951412,0,0.051703576,0,0.047434625
201,5,0.7,4,61.0738255,305.2138003,-2256.888889,412.5312574,255.7913931,336.8375106,-530.3942387,-1442,-7844,908,-45,45,364,59.57477085,64.81779865,60.44000407,65.78447053,-0.005229151,-0.005440919,0.020004071,0.044956405
201,5,0.7,4,61.74496644,206.9402335,-3343.111111,978.4878509,459.2104328,498.0258299,-21.06470446,-1303,-7996.301347,774.5397059,-31.7755102,45.5,278.7136316,59.55136322,64.76318084,60.48930185,65.82553244,-0.02340763,-0.054617803,0.049297781,0.04106191
201,5,0.7,4,62.41610738,178,-3928,1200,648,611,503,-1164,-8142,700,-13,46,199,59.52695384,64.70622562,60.49,65.88524829,-0.024409383,-0.056955227,0.000698148,0.05971585
201,5,0.7,4,63.08724832,378.6062246,-3922.466387,859.3980798,831.6572811,683.2128145,1064.432841,-1203,-8155.447532,663.6,-4.636526833,39,158.6716157,59.52,64.69330016,60.49,65.90340525,-0.006953836,-0.012925455,0,0.018156964
201,5,0.7,4,63.75838926,700,-3904,342,1011,750,1657,-1242,-8166,648,4,32,135,59.52,64.73694438,60.49,65.84120293,0,0.043644223,0,-0.06220232
201,5,0.7,4,64.4295302,928,-3562,32,1206,853,2313,-1025.633028,-8187.278103,666.5411392,23.29224537,45.5,123.8,59.52,64.80607784,60.49,65.8369722,0,0.069133457,0,-0.00423073
201,5,0.7,4,65.10067114,1295.436566,-3598.366738,15.61397417,1366.716009,968.3243945,2775.843747,-706,-8218,710,41,59,119,59.52,64.91894621,60.49,65.86818237,0,0.112868368,0,0.031210173
201,5,0.7,4,65.77181208,1564,-3690,2,1511,1035,3193,-486.3669725,-8281.82716,807.0442734,46.78645833,55.37704918,135.5696056,59.52,65.04109677,60.49,65.90072822,0,0.12215056,0,0.032545844
201,5,0.7,4,66.44295302,1614.764873,-4012.956566,-105.6186908,1647.914716,1004.774347,3654.746346,-370,-8328,964,52,46,173,59.52,65.13367423,60.48354004,65.90261719,0,0.09257746,-0.006459961,0.001888969
201,5,0.7,4,67.11409396,1634,-4500,-210,1772,935,4102,-466,-8000,1196,62,16,247,59.52,65.20613851,60.42645996,65.83738281,0,0.072464277,-0.057080078,-0.065234375
201,5,0.7,4,67.7852349,1530,-4970,-222,1877,787,4495,-694,-8310,1218,22,7,276,59.52,65.26950821,60.42,65.83,0,0.063369706,-0.006459961,-0.007382812
201,5,0.7,4,68.45637584,1632.148148,-5407.532981,-154.5925926,1993.569989,546.405042,4973.917883,-618,-8172,1120,-12,2,334,59.52,65.32486365,60.42,65.83,0,0.055355437,0,0
201,5,0.7,4,69.12751678,1821.851852,-5822.617879,-29.40740741,2111.453109,249.3368272,5491.082353,-613.3918495,-8245,1065.101351,-43.00845321,28.38461538,373.9334277,59.5555957,65.36770015,60.42,65.79787086,0.035595703,0.042836498,0,-0.032129136
201,5,0.7,4,69.79865772,1924,-6196,38,2202,-12,5946,-612,-8318,1040,-75,58,420,59.58,65.41930592,60.42,65.74559531,0.024404297,0.051605777,0,-0.052275557
201,5,0.7,4,70.46979866,1782,-6508,18,2255,-198,6289,-782,-8176,1062,-113,62,518,59.58,65.50397162,60.42,65.69674826,0,0.084665699,0,-0.048847048
201,5,0.7,4,71.1409396,1593.523605,-6806.273156,-179.1148254,2318.324399,-405.8836317,6645.975464,-717.3125,-8156.436359,1058.5625,-135.5663133,66.26997825,593.1861974,59.58,65.59568657,60.40101563,65.69,0,0.091714942,-0.018984375,-0.006748259
201,5,0.7,4,71.81208054,1374,-7148,-538,2394,-526,6960,-575,-8147.268602,1051,-152.4892172,70.74050478,658.6319762,59.58,65.69,60.36,65.69,0,0.094313435,-0.041015625,0
201,5,0.7,4,72.48322148,1063.432314,-7647.259003,-1128.395379,2507.756073,-488.5695797,7184.46116,-432.6875,-8139.966543,1043.4375,-168.4175126,74.59077891,719.011767,59.58,65.7932134,60.36,65.64690278,0,0.103213402,0,-0.043097216
201,5,0.7,4,73.15436242,866,-8232,-1540,2606,-402,7368,-368,-8126,1040,-188,77,779,59.58,65.83,60.35921862,65.60081425,0,0.036786598,-0.000781376,-0.046088532
201,5,0.7,4,73.82550336,925.6296296,-8850.238006,-1249.224846,2655.709685,-198.8009538,7550.43393,-438,-8092,1144,-215,78,838,59.58,65.83,60.34711457,65.5714182,0,0,-0.012104055,-0.029396048
201,5,0.7,4,74.4966443,1036.37037,-9495.558025,-690.4496916,2692.577065,136.656991,7715.392852,-544.1939292,-8421,1094,-250.4345764,87.49348391,929.7985943,59.58,65.83,60.32526015,65.54895196,0,0,-0.021854415,-0.022466241
201,5,0.7,4,75.16778523,1096,-10074,-334,2707,488,7805,-676,-8750,1044,-293,104,1023,59.58,65.83,60.3,65.54,0,0,-0.025260154,-0.008951963
201,5,0.7,4,75.83892617,836,-10534,-270,2667,828,7826,-827.3516807,-8594.672323,1098.889898,-352.2531994,127.0615036,1089.232004,59.58,65.78583147,60.25792825,65.58416853,0,-0.044168532,-0.04207175,0.044168532
201,5,0.7,4,76.51006711,592,-11002,-518,2617,1384,7816,-997.6560614,-8266.011313,1210.224241,-418.7026729,153.4196407,1146.047899,59.58,65.76379559,60.24,65.60354004,0,-0.022035878,-0.01792825,0.019371507
201,5,0.7,4,77.18120805,693.7697047,-10985.40741,-516.977762,2594.994839,1751.880763,7744.942014,-1172,-7970,1298,-462,166,1200,59.58,65.81199443,60.24,65.54645996,0,0.048198842,0,-0.057080078
201,5,0.7,4,77.85234899,943.9838539,-10954.59259,-513.7333017,2580.136404,2041.551493,7600.037383,-1348,-7784,1336,-477,157,1252,59.61630368,65.88502917,60.24,65.54,0.036303684,0.073034741,0,-0.006459961
201,5,0.7,4,78.52348993,1260,-10938,-508,2553,2159,7435,-1589.011631,-7902.222222,1220.609515,-490.0366971,157.9139785,1260.589454,59.7,65.98,60.24,65.54,0.083696316,0.094970827,0,0
201,5,0.7,4,79.19463087,1762.347624,-11210.75277,-188.7729439,2428.721889,2054.29315,7256.243841,-1841.283593,-8121.777778,970.1079195,-502.6957448,160.827957,1265.461394,59.74583757,66.0677475,60.22411651,65.54,0.045837574,0.087747496,-0.015883493,0
201,5,0.7,4,79.86577181,2310,-11664,198,2228,1826,7038,-1958,-8240,728,-519,166,1267,59.76,66.13751685,60.18492552,65.54,0.014162426,0.069769358,-0.039190984,0
201,5,0.7,4,80.53691275,2751.994792,-12113.24723,322.5395928,2001.129107,1377.560631,6782.05928,-1666,-8108,546,-546,199,1242,59.76,66.18610033,60.13511629,65.54,0,0.04858348,-0.049809235,0
201,5,0.7,4,81.20805369,2988,-12382,376,1755,867,6455,-1986,-7708,506,-522,187,1278,59.77316507,66.23730502,60.07165915,65.56583147,0.013165072,0.051204683,-0.063457138,0.025831468
201,5,0.7,4,81.87919463,2850.158054,-12005.66258,211.5427696,1509.315356,472.6029408,5965.829727,-1932.875,-7684.351675,563.7445652,-525.2307692,192.775,1275.019817,59.82,66.29507242,60,65.61,0.046834928,0.057767401,-0.07165915,0.044168532
201,5,0.7,4,82.55033557,2547.427218,-11240.88072,-144.4700164,1267.511338,128.9270758,5346.267194,-1816,-7669.645933,701.6521739,-534.1153846,205.9,1267.219512,59.86683493,66.33894887,59.96297292,65.61,0.046834928,0.043876454,-0.037027076,0
201,5,0.7,4,83.22147651,2246,-10634,-486,1079,-19,4733,-1699.125,-7662.117225,866.7336957,-547.4423077,220.075,1256.309451,59.88,66.35,59.92725898,65.61,0.013165072,0.011051128,-0.035713943,0
201,5,0.7,4,83.89261745,2002,-10366,-738,963,-20,4175,-1646,-7660,1006,-564,229,1244,59.88,66.35,59.88387467,65.61,0,0,-0.043384312,0
201,5,0.7,4,84.56375839,1652,-9772,-1208,790,140,3229,-1762,-8174,1106,-597,232,1226,59.85785874,66.48653776,59.88,65.6318364,-0.022141258,0.136537757,-0.003874669,0.021836401
201,5,0.7,4,85.23489933,1536,-9346,-1322,679,332,2549,-1730,-8030,670,-670,279,1317,59.82,66.72,59.88,65.69,-0.037858742,0.233462243,0,0.058163599
201,5,0.7,4,85.90604027,1670.468296,-9275.649022,-1101.896866,505.0143539,609.7366432,1725.341575,-1785.22335,-7990.696203,591.1199602,-704.7509203,290.9432773,1327.533024,59.86101563,66.46707031,59.95113174,65.73085962,0.041015625,-0.252929688,0.071131744,0.04085962
201,5,0.7,4,86.57718121,1916,-9216,-812,299,892,882,-1902,-7976,564,-727,299,1335,59.88,66.35883402,60.01882497,65.78878686,0.018984375,-0.108236293,0.067693228,0.057927242
201,5,0.7,4,87.24832215,2168.284381,-9019.609788,-696.4496556,75.75832569,1134.258042,91.95742784,-2090,-8290,604,-741,309,1351,59.88,66.41116598,60.05564311,65.88121314,0,0.052331962,0.036818142,0.092426274
201,5,0.7,4,87.91946309,2456.039772,-8702.833002,-612.624288,-156.2258782,1351.253734,-662.5387464,-2034,-7686,546,-791,320,1388,59.88,66.36070313,60.04101563,65.93731143,0,-0.050462856,-0.014627489,0.05609829
201,5,0.7,4,88.59060403,2742,-8370,-536,-341,1475,-1298,-1850.843145,-7923,498.5970874,-817.3353037,381.1909405,1396.586778,59.88,66.2,60,65.98,0,-0.160703125,-0.041015625,0.042688573
201,5,0.7,4,89.26174497,3007.023898,-7973.666226,-443.3933123,-465.8244215,1523.233589,-1815.660547,-1684,-8160,474,-844,444,1405,59.92101563,66.14559503,60,66.08390625,0.041015625,-0.054404966,0,0.10390625
201,5,0.7,4,89.93288591,3270.287404,-7558.277558,-356.4744339,-566.9700361,1556.272161,-2261.244904,-1642.610064,-8061.481481,589.1111111,-893.1447565,457.6513012,1451.723357,59.94,66.10366858,60,66.12,0.018984375,-0.041926455,0,0.03609375
201,5,0.7,4,90.60402685,3552,-7366,-318,-662,1570,-2618,-1615.638366,-7878.518519,802.8888889,-960.8294373,465.363566,1539.217055,59.94,66.06523486,60,66.12,0,-0.038433716,0,0
201,5,0.7,4,91.27516779,3953.418409,-13831,-1232,-777.4566309,1572.175142,-2933.787224,-1606,-7780,918,-1037,479,1632,59.95813817,65.99118339,60,66.11188719,0.018138174,-0.074051478,0,-0.008112809
201,5,0.7,4,91.94630872,4206,-20296,-2146,-844,1573,-3103,-1612.5625,-7807.858908,798.3125,-1141.909963,560.104586,1738.087803,60.00362514,65.9040074,60,66.08340958,0.045486963,-0.087175983,0,-0.028477614
201,5,0.7,4,92.61744966,3678.140187,-15386.67887,-1384.996711,-802.6961023,1390.751993,-3113.401804,-1627,-7895.957088,535,-1272.531078,716.9759756,1862.800269,60.03897161,65.85548366,60,66.05610068,0.035346468,-0.048523741,0,-0.027308902
201,5,0.7,4,93.2885906,2598,-9964,-26,-703,1069,-3117,-1641.4375,-8051.076724,271.6875,-1383.886654,881.6093773,1966.612601,60.07665785,65.81380975,60,66.05,0.037686242,-0.041673906,0,-0.006100676
201,5,0.7,4,93.95973154,1067.290848,-9305.869517,1644.996711,-333.8038977,798.9491798,-3065.276331,-1648,-8280,152,-1431,986,2010,60.11659271,65.77484095,60,66.05,0.039934867,-0.038968804,0,0
201,5,0.7,4,94.63087248,-930,-8824,2718,-23,444,-2944,-1506.174838,-11529.02146,783,-1405.5,1033.900242,1993,60.12,65.70924485,60,66.05,0.003407287,-0.065596103,0,0
201,5,0.7,4,95.30201342,-3851.431034,-8088.347413,2050.50866,-184.9152307,-464.2011728,-2554.223669,-1128,-14644,1414,-1380,1056,1976,60.12,65.6097597,60,66.0501781,0,-0.099485149,0,0.000178099
201,5,0.7,4,95.97315436,-5754,-7174,498,-445,-1148,-2234,240,-10892,1054,-1625,813,2058,60.12,65.51214152,60,66.06723998,0,-0.097618174,0,0.017061877
201,5,0.7,4,96.6442953,-3860,-5884,-2878,-631,-519,-2470,-91.45252052,-10504.79402,92.32506643,-1771.550659,795.3925449,2303.282546,60.12,65.45062219,60,66.09712497,0,-0.061519332,0,0.029884999
201,5,0.7,4,97.31543624,-1769.183478,-8323,-2164.528854,-457,314.3013748,-2853.361331,-636,-10382,-628,-1840,790,2602,60.12,65.41205066,60,66.11846123,0,-0.038571527,0,0.021336251
201,5,0.7,4,97.98657718,400,-10762,-882,-283,824,-3218,-1157.547479,-10948.75637,-221.629253,-1804.5,831.4994508,2799.86602,60.12,65.37217177,59.9755957,66.12,0,-0.039878899,-0.024404297,0.001538775
201,5,0.7,4,98.65771812,3091.855814,-8472,726.5288544,-336.3009868,528.4623537,-3461.21223,-1466,-11736,412,-1769,885,2988,60.12,65.32366267,59.94,66.12,0,-0.048509099,-0.035595703,0
201,5,0.7,4,99.32885906,4736,-6182,1766,-467,139,-3582,-1425.01336,-12080.38383,923.044598,-1823.656198,903.1984005,3203.211914,60.12,65.22952266,59.94,66.12,0,-0.09414001,0,0
201,5,0.7,4,100,4766,-8016,518,-808,1,-3421,-1324.915608,-12341.00687,1395.966743,-1929.201284,915.6175585,3430.20705,60.12,65.15970994,59.930625,66.1325,0,-0.069812719,-0.009375,0.0125
201,5,0.7,1,0,770,-7856,-2954,-780,-387,-3708,-1200,-12682,1604,-1998,931,3660,60.12,65.11941809,59.88257813,66.1965625,0,-0.040291851,-0.048046875,0.0640625
201,5,0.7,1,0.684931507,979.2475179,-7777.009742,-1936.753587,-444.2147806,-144,-3620.961617,-1010.927207,-13445.97212,1135,-2016.303444,954.5795914,3889.155524,60.12,65.06433661,59.88,66.2,0,-0.055081478,-0.002578125,0.0034375
201,5,0.7,1,1.369863014,1460,-7710,-202,-132,99,-3459,-802,-13992,666,-2024,984,4124,60.12,64.99824686,59.88,66.2,0,-0.066089751,0,0
201,5,0.7,1,2.054794521,2464,-7622,1284,-133,22,-3280,-656,-13454,1094,-1880,1021,4370,60.12,64.93335851,59.88,66.2,0,-0.06488835,0,0
201,5,0.7,1,2.739726027,2470.23885,-7794.473702,1235.240064,-258.4471383,-48.18598616,-2984.263762,-1053.74867,-12747.51003,739.7349476,-1816.152769,1114.575781,4549.054802,60.12,64.88095227,59.88,66.2,0,-0.052406235,0,0
201,5,0.7,1,3.424657534,2472,-8048,1124,-383,-86,-2678,-1920,-12080,200,-1789,1252,4734,60.12,64.83840808,59.88,66.2,0,-0.04254419,0,0
201,5,0.7,1,4.109589041,2387.481481,-8219.08379,796.7584055,-299.4304222,-77.29215155,-2464.529848,-3622.503733,-11535.64201,-209.7349476,-1858.5,1428.201287,5083.132632,60.12,64.78856934,59.87113115,66.21197868,0,-0.049838746,-0.008868854,0.011978684
201,5,0.7,1,4.794520548,2230.518519,-8366.986339,319.9347583,-136.3052889,-60.36208088,-2281.316414,-5542,-11250,-434,-1928,1612,5320,60.12,64.76,59.84592036,66.25423649,0,-0.028569335,-0.025210786,0.042257808
201,5,0.7,1,5.479452055,2146,-8430,76,-25,-49,-2096,-6987.747598,-12474,338.1269009,-1888.661215,1738.627435,5146.08267,60.12,64.76,59.82371483,66.31573896,0,0,-0.022205526,0.061502468
201,5,0.7,1,6.164383562,2217,-8309,177.5,4.350612353,-45.84557193,-1898.202705,-7748,-13698,1482,-1815,1887,4788,60.12,64.77320302,59.82,66.40958946,0,0.013203018,-0.003714834,0.093850499
201,5,0.7,1,6.849315068,2288,-8188,300,28,-44,-1696,-6711.389504,-12955.43047,2272.88551,-1747.858825,2295.02775,4294.886325,60.12,64.82481481,59.82,66.5565945,0,0.051611797,0,0.147005044
201,5,0.7,1,7.534246575,2118,-8398,328,62,-43,-1485,-4595.667897,-11209.30538,2962.776088,-1665.814224,2843.902764,3609.104214,60.12735718,64.83,59.82,66.57,0.007357178,0.005185185,0,0.013405497
201,5,0.7,1,8.219178082,2420,-7968,586,93,-23,-1289,-2892,-9182,3258,-1542,3119,2816,60.15280884,64.83,59.82,66.57,0.02545166,0,0,0
201,5,0.7,1,8.904109589,2777.431507,-7940.378453,610.0885241,111.4171018,-27.09090909,-1073.245131,-1891.853474,-6698.782922,2986.478907,-1192.769728,3072.992952,1569.920878,60.17606323,64.83,59.82,66.57,0.023254395,0,0,0
201,5,0.7,1,9.589041096,2988,-7932,630,120,-35,-853,-1392,-4076,2228,-769,2929,733,60.18,64.83890495,59.82,66.57,0.003936768,0.008904946,0,0
201,5,0.7,1,10.2739726,2711.040346,-8034.251852,744.0944882,107.5,-47.40909091,-634.9656068,-2764,-2086,-1164,-511,1620,806,60.18,64.88877264,59.82,66.57,0,0.049867698,0,0
201,5,0.7,1,10.95890411,2392,-8204,840,95,-56,-432,-1676,-140,-2074,-106,882,822,60.18,64.95922469,59.82,66.60120783,0,0.070452051,0,0.031207829
201,5,0.7,2,11.64383562,2339.648605,-8371.748148,731,95.59210526,-55.5,-253.584335,-64,1022,-1122,349,423,303,60.18,65.04867224,59.82,66.70049626,0,0.089447542,0,0.099288431
201,5,0.7,2,12.32876712,2294,-8472,622,97,-55,-105,454.8506237,439.8803789,-96.35828408,650.8145048,428.8225833,-312.6483498,60.18,65.14213883,59.82,66.81924155,0,0.093466593,0,0.11874529
201,5,0.7,2,13.01369863,2182.547186,-8442.801092,656.6875,102.7615132,-55.10484813,13.33324689,785.7586452,-782.2392422,878.2653024,897.3024853,443.3118333,-990.6375398,60.18,65.21198445,59.80748219,66.91751803,0,0.069845617,-0.01251781,0.098276476
201,5,0.7,2,13.69863014,2014.548298,-8364.969579,733,113.3157895,-55.44626168,118.0878602,902,-1858,1312,1169,462,-1691,60.18,65.25821324,59.76229595,67.00703895,0,0.04622879,-0.045186241,0.089520919
201,5,0.7,2,14.38356164,1827.275261,-8253.153276,809.3125,123.4621711,-56.06454439,207.0485434,51,-2538.129195,745.0235756,1515.57634,500.3245938,-2424.575308,60.18,65.23782787,59.79,67.05759398,0,-0.020385371,0.02770405,0.050555035
201,5,0.7,2,15.06849315,1658,-8122,844,128,-57,278,-800,-3092,-152,1877,529,-3152,60.18,65.1748009,59.82,67.09920731,0,-0.063026964,0.03,0.041613326
201,5,0.7,2,15.75342466,1524.113823,-7844.01521,784.127193,118.5,-96.77686916,340.8021028,-238,-3510,-764,2208,396,-3806,60.18,65.11928709,59.82,67.14707246,0,-0.055513816,0,0.047865154
201,5,0.7,2,16.43835616,1378,-7634,698,109,-136,373,-358,-3896,-794,2512,201,-4056,60.18,65.11,59.82,67.1908539,0,-0.009287086,0,0.043781439
201,5,0.7,2,17.12328767,1178.123077,-7805.5,643.872807,117.5,-114.4090909,360,-711.5349992,-4195.814313,-824.75,2804.916315,-92.40427457,-4374.643381,60.18,65.11,59.82,67.23119434,0,0,0,0.040340444
201,5,0.7,2,17.80821918,930,-8138,616,126,-86,347,-1062,-4534,-842,3049,-375,-4697,60.18,65.075,59.79,67.27631071,0,-0.035,-0.03,0.045116363
201,5,0.7,2,18.49315068,610,-8552,912,114,-76,376,-1184.099432,-5157.926057,-821.0625,3216.110156,-570.4826921,-4962.116943,60.17770405,65.04,59.76,67.33370348,-0.00229595,-0.035,-0.03,0.057392775
201,5,0.7,2,19.17808219,926,-8338,1108,76,-73,296,-1256.690864,-6021.182455,-775,3351.331394,-740.8952681,-5202.629368,60.13251781,65.04,59.76,67.42194179,-0.045186241,0,0,0.088238307
201,5,0.7,2,19.8630137,590,-8864,984,87,-83,306,-1329.936864,-6900.347625,-728.9375,3473.886935,-880.3602101,-5439.827109,60.12,65.04,59.77391602,67.52040448,-0.01251781,0,0.013916016,0.098462692
201,5,0.7,2,20.54794521,194,-7098,540,101,-62,147,-1454,-7572,-708,3603,-983,-5695,60.12,65.04,59.81932617,67.62149171,0,0,0.045410156,0.101087229
201,5,0.7,2,21.23287671,268,-8108,742,79,-53,46,-1764,-7972,-790,3742,-1046,-5983,60.12,65.04,59.81400724,67.70094126,0,0,-0.005318929,0.079449553
201,5,0.7,2,21.91780822,306.1826909,-8044,1012.202845,47.26467391,-78,-38.55087752,-1908.938478,-7932.9375,-921.231686,3813.036348,-1110.719251,-6198.201865,60.12,65.03842773,59.79648011,67.771487,0,-0.001572266,-0.017527129,0.070545742
201,5,0.7,2,22.60273973,346,-7980,1178,12,-103,-122,-2003.425472,-7847,-1086.483721,3870.504532,-1177.917112,-6386.234529,60.12,64.9324707,59.77263537,67.83287898,0,-0.105957031,-0.023844748,0.061391977
201,5,0.7,2,23.28767123,434.3524705,-8026.176,1178,-20.64301966,-102.792,-220.6450325,-2094.199731,-7761.0625,-1227.993895,3908.970449,-1230.656417,-6547.899928,60.12,64.9,59.74015602,67.88360841,0,-0.032470703,-0.032479344,0.050729434
201,5,0.7,2,23.97260274,570.8540833,-8136.288,1178,-52.78559093,-102.296,-329.5412514,-2228,-7722,-1288,3923,-1252,-6684,60.12,64.9,59.70052685,67.92553354,0,0,-0.039629168,0.041925121
201,5,0.7,2,24.65753425,731.1794608,-8267.712,1178,-84.80665236,-101.704,-439.5149541,-2523.391229,-8209.072075,-1167.105678,3902.556309,-1186.668224,-6795.267274,60.12,64.93808467,59.7,67.98255946,0,0.038084673,-0.000526854,0.057025926
201,5,0.7,2,25.34246575,891.0032255,-8377.824,1178,-117.0851425,-101.208,-541.3924378,-2778,-8984,-940,3862,-1088,-6884,60.11967933,64.97,59.7,68.01,-0.00032067,0.031915327,0,0.027440538
201,5,0.7,2,26.02739726,1026,-8424,1178,-150,-101,-626,-2836,-9522,-682,3808,-1030,-6951,60.10972778,64.97,59.7,68.01,-0.009951552,0,0,0
201,5,0.7,2,26.71232877,1130,-8300,1018,-184,-110,-688,-2808,-10256,-402,3781,-1031,-7014,60.08974891,64.97,59.7,68.01,-0.01997887,0,0,0
201,5,0.7,2,27.39726027,1096.814815,-8042.615,860.8540974,-196.4146044,-96.77777778,-760.6303746,-2898,-10544,-544,3762,-1083,-7075,60.06504229,64.97,59.7,68.01,-0.024706618,0,0,0
201,5,0.7,2,28.08219178,1035.185185,-7727.640834,716.9826043,-204.1197484,-72.22222222,-837.5336044,-2818.990099,-10576.19043,-793.2796816,3736.825233,-1194.761105,-7050.539033,60.02498328,64.97,59.70558308,67.9826901,-0.040059013,0,0.005583083,-0.027309904
201,5,0.7,2,28.76712329,1002,-7574,654,-215,-59,-905,-2646.646865,-10591.67692,-1080.52873,3704.50332,-1358.084371,-6986.078067,60,64.96521385,59.7243977,67.8884813,-0.024983278,-0.004786154,0.018814614,-0.094208797
201,5,0.7,2,29.45205479,1009.544582,-7621.39369,674.8504801,-236.5854359,-62.80036811,-959.5054019,-2478,-10608,-1218,3660,-1529,-6895,60,64.86452099,59.74968004,67.75645582,0,-0.10069286,0.025282347,-0.132025478
201,5,0.7,2,30.1369863,1029.76406,-7748.408779,730.7297668,-269.4305645,-73.51733778,-1007.806705,-2317.649432,-10626.45387,-1217.590297,3586.285346,-1721.51918,-6700.234908,60,64.80151894,59.78349682,67.57336037,0,-0.063002045,0.033816781,-0.18309545
201,5,0.7,2,30.82191781,1059.037037,-7932.296296,811.6296296,-310.9566016,-90.12470699,-1051.615801,-2160.713605,-10645.84892,-1216.291705,3472.085431,-1922.890442,-6372.975806,60,64.76403445,59.81954154,67.334218,0,-0.037484493,0.036044719,-0.239142375
201,5,0.7,2,31.50684932,1093.742112,-8150.30727,907.5418381,-358.5847634,-111.5962737,-1092.644583,-2090,-10680,-1214,3321,-2049,-5999,60,64.72322387,59.82,67.23775041,0,-0.040810581,0.000458457,-0.096467586
201,5,0.7,2,32.19178082,1130.257888,-8379.69273,1008.458162,-409.7362657,-136.905836,-1132.604942,-2236.070955,-10863.92333,-1119.645601,3067.895689,-2102.610194,-5576.908248,59.99742188,64.6814223,59.82257813,67.14333236,-0.002578125,-0.041801565,0.002578125,-0.09441805
201,5,0.7,2,32.87671233,1164.962963,-8597.703704,1104.37037,-461.8323245,-165.0271917,-1173.208771,-2540,-11158,-962,2732,-2126,-5071,59.949375,64.63730308,59.870625,66.96771636,-0.048046875,-0.044119216,0.048046875,-0.175616
201,5,0.7,2,33.56164384,1194.23594,-8781.591221,1185.270233,-512.2941559,-194.934139,-1216.167962,-3000.19575,-11525.61019,-824.0347306,2369.628269,-2081.444186,-4490.487709,59.94,64.58933523,59.88,66.94,-0.009375,-0.047967858,0.009375,-0.02771636
201,5,0.7,2,34.24657534,1214.455418,-8908.60631,1241.14952,-558.5429757,-225.6004758,-1263.194408,-3598,-11760,-696,1961,-2007,-3800,59.94,64.5504632,59.88,66.94,0,-0.038872025,0,0
201,5,0.7,2,34.93150685,1222,-8956,1262,-598,-256,-1316,-4250,-11594,-600,1495,-1947,-2908,59.90882208,64.55,59.90776958,66.98746094,-0.031177915,-0.000463201,0.027769581,0.047460938
201,5,0.7,2,35.61643836,908,-7438,988,-630,-294,-1381,-4682,-10928,-612,1186,-1917,-2347,59.87409056,64.55086931,59.95180588,67.00888889,-0.034731523,0.000869313,0.044036295,0.021427951
201,5,0.7,2,36.30136986,1384,-7750,932,-684,-280,-1477,-4701.191191,-10007.22721,-741.3105045,844.9785612,-1797.351658,-1710.055854,59.85574177,64.56486424,59.99222752,66.89829218,-0.018348795,0.01399493,0.040421644,-0.110596708
201,5,0.7,2,36.98630137,1436,-8164,916,-719,-332,-1518,-4708.287903,-8951.133191,-980.6261566,495.2946971,-1585.745967,-1033.066615,59.84021475,64.59195915,60,66.87,-0.015527014,0.027094904,0.007772479,-0.028292181
201,5,0.7,2,37.67123288,1602,-7862,1234,-749,-342,-1553,-4724,-8022,-1166,194,-1365,-374,59.82848242,64.62697228,60,66.87,-0.011732338,0.035013131,0,0
201,5,0.7,2,38.35616438,2258,-8542,678,-808,-479,-1624,-4830.33802,-7188.840028,-1266.938488,-50.11357529,-1146.010342,255.2591965,59.82151765,64.66472189,60.0355957,66.7335498,-0.006964768,0.037749612,0.035595703,-0.136450195
201,5,0.7,2,39.04109589,3192.620174,-10047.23446,823,-814.0742188,-732.7050527,-1545.5,-5004,-6694,-1316,-239,-942,844,59.82,64.70277135,60.06,66.64812111,-0.001517648,0.038049457,0.024404297,-0.085428691
201,5,0.7,2,39.7260274,3778,-11122,968,-816,-905,-1467,-5235.392749,-6613.603616,-1240,-357.4532792,-788.511634,1394.723605,59.82,64.75267396,60.06,66.74622489,0,0.049902612,0,0.09810378
201,5,0.7,2,40.4109589,1916,-10190.53893,262,-811.5,-666.5,-1552.951417,-5386,-6584,-1164,-463,-664,1846,59.78203125,64.72333278,60.06275884,66.86093609,-0.03796875,-0.02934118,0.00275884,0.114711201
201,5,0.7,2,41.09589041,54,-9230,-444,-807,-428,-1660,-5114,-8750,-1310,-594,-570,2129,59.7,64.62,60.07735727,67.00690761,-0.08203125,-0.103332779,0.014598427,0.145971517
201,5,0.7,2,41.78082192,830,-9185.461066,-298.379015,-823.6671687,-497.8823529,-1687.024093,-3551.51434,-8516.583085,79,-572.9490291,-1417.5,2287.676469,59.7,64.57557268,60.09986318,67.13079815,0,-0.044427324,0.022505917,0.123890534
201,5,0.7,2,42.46575342,1606,-9170,-38,-858,-572,-1714,-2202,-8034,1468,-510,-2265,2383,59.7,64.54415992,60.12641905,67.16836111,0,-0.03141276,0.026555868,0.037562965
201,5,0.7,2,43.15068493,1074,-9383.860438,193.3645572,-906.0456478,-578.6176471,-1796.923814,-3722,-7308,1082,-99,-795,2422,59.7,64.51437436,60.17250627,67.121,0,-0.029785557,0.046087218,-0.047361111
201,5,0.7,2,43.83561644,542,-9798,490,-973,-581,-1905,-3022,-6392,1892,-527,-752,2566,59.7,64.4900583,60.18,66.95365885,0,-0.024316059,0.007493729,-0.167341146
201,5,0.7,2,44.52054795,890,-10451.13956,1146.014458,-1091.787184,-550.5,-1986.496757,-452.1773674,-5587.215259,502.2870813,-807.6192031,-368.2029669,2346.666667,59.7,64.48,60.18,66.72,0,-0.0100583,0,-0.233658854
201,5,0.7,2,45.20547945,1238,-10904,1622,-1174,-520,-2084,3258.133539,-4882.274296,-2120.759171,-1027.865157,272.2318499,1939.333333,59.7,64.56833706,60.18744493,66.72,0,0.088337065,0.007444926,0
201,5,0.7,2,45.89041096,736,-10888,1457.235955,-1132,-554.5322848,-2263.758627,5152,-4580,-3658,-1117,610,1720,59.69868105,64.61846123,60.20602201,66.72,-0.00131895,0.05012416,0.018577087,0
201,5,0.7,2,46.57534247,234,-10872,1206,-1090,-623,-2492,3168.017112,-6992,-3838.322967,-873.0274889,-268,2335.263817,59.68039284,64.59712497,60.23009473,66.72,-0.018288215,-0.021336251,0.024072711,0
201,5,0.7,2,47.26027397,254,-10940.0692,1014.764045,-1090.231651,-734.1713094,-2733.254912,-116,-9404,-3908,-576,-1146,3043,59.65477712,64.56723998,60.26328454,66.70334916,-0.025615713,-0.029884999,0.03318981,-0.016650837
201,5,0.7,2,47.94520548,274,-11134,910,-1091,-822,-2976,-3333.017112,-8662.111049,-757,-483.4725111,-454.6270023,3196.736183,59.64015266,64.5501781,60.29953686,66.64481305,-0.014624466,-0.017061877,0.036252329,-0.058536115
201,5,0.7,2,48.63013699,80,-12092,1018,-1104,-835,-3188,-5250,-7826,2394,-444,346,3258,59.64,64.55,60.3,66.60387688,-0.000152656,-0.000178099,0.000463135,-0.040936173
201,5,0.7,3,49.31506849,-544,-12894,656,-1147,-677,-3484,-3625.099956,-7716.345961,1336.081448,-864.5,528.6270023,3016,59.64553711,64.55,60.30439071,66.54791994,0.005537109,0,0.00439071,-0.055956934
201,5,0.7,3,50,-950,-12490,446,-1174,-634,-3586,-1356,-7612,-406,-1285,602,2774,59.69446289,64.55,60.34949516,66.44662088,0.048925781,0,0.04510445,-0.101299061
201,5,0.7,3,50.68493151,-518.2478722,-11963.09703,371.6423013,-1154.120341,-706.2729045,-3738.773817,-342,-7234,-1750,-1080,-103,3257,59.69341746,64.55,60.37462231,66.36766298,-0.001045427,0,0.025127155,-0.078957899
201,5,0.7,3,51.36986301,394.8375889,-11362.39913,326.617936,-1116.01846,-861.2124756,-3923.978904,-178,-9354,-714,-552,-219,3164,59.67,64.55,60.38939728,66.30033867,-0.023417464,0,0.01477497,-0.067324312
201,5,0.7,3,52.05479452,1216,-10778,248,-1092,-1006,-4100,-686,-6794,1050,-501,-316,3099,59.64658254,64.55,60.40458936,66.2397004,-0.023417464,0,0.015192074,-0.06063827
201,5,0.7,3,52.73972603,1730,-10248,-8,-1088,-1106,-4249,-1682.182313,-7123.105239,1638.705249,-646.5,-29.5,2680.297491,59.64,64.55179546,60.43170855,66.18512955,-0.006582536,0.001795457,0.027119194,-0.05457085
201,5,0.7,3,53.42465753,2957.070668,-10984.2963,331.2662004,-1141.969222,-1109.448815,-4376.788617,-2370,-7624,1870,-792,257,2284,59.64,64.57959875,60.48475125,66.14007527,0,0.027803289,0.0530427,-0.045054281
201,5,0.7,3,54.10958904,4530.09089,-12351.7037,1038.087956,-1257.716222,-1110.562297,-4487.672086,-1206,-7926,276,-738,98,2249,59.64,64.62976569,60.49,65.99435553,0,0.050166942,0.005248747,-0.145719741
201,5,0.7,3,54.79452055,5308,-13088,1646,-1366,-1114,-4535,-1046,-7948,-436,-623,12,2160,59.64,64.68768346,60.49,65.83,0,0.05791777,0,-0.164355527
201,5,0.7,3,55.47945205,5224,-13070,1984,-1441,-1207,-4409,-1152.814815,-7991.145299,-251.4074074,-521.7862126,37.66666667,2010.447621,59.64,64.73873923,60.49,65.83,0,0.051055773,0,0
201,5,0.7,3,56.16438356,4602,-12178,1688,-1404,-1446,-4212,-1351.185185,-8042.905983,91.40740741,-427.0700329,85.33333333,1823.776803,59.64,64.7699461,60.49,65.82116598,0,0.031206873,0,-0.008834019
201,5,0.7,3,56.84931507,3716,-10850,1896,-1315,-1687,-3879,-1458,-8068,276,-332,111,1662,59.64,64.78910315,60.49,65.76883402,0,0.019157044,0,-0.052331962
201,5,0.7,3,57.53424658,2404.402305,-8333.747048,2017.762111,-1196.674312,-2113.329915,-3079.905641,-1365,-7868,142,-226.8159806,69.5,1556.398288,59.64,64.80646949,60.50898438,65.76,0,0.017366344,0.018984375,-0.008834019
201,5,0.7,3,58.21917808,988.5344859,-5351.984635,2109.658833,-1056.322341,-2605.998291,-2046.647743,-1272,-7668,8,-136,28,1447,59.64,64.83,60.55,65.76,0,0.023530509,0.041015625,0
201,5,0.7,3,58.90410959,326,-3912,2146,-903,-2842,-1509,-1623,-7968,455.8131021,-65.8013245,31,1259.242231,59.64,64.87202062,60.55,65.80785156,0,0.042020616,0,0.047851563
201,5,0.7,3,59.5890411,961.7037037,-4109.555556,1392.074074,-742.5686697,-2495.181516,-1480.431787,-1974,-8268,948,-30,34,1075,59.64,64.91972906,60.55,65.83,0,0.047708443,0,0.022148437
201,5,0.7,4,60.2739726,2142.296296,-4476.444444,-8.074074074,-564.8854876,-1767.474142,-1466.920086,-1961,-8072.314332,1001.718288,-43.92307692,32,955.4184211,59.64,64.9660798,60.55,65.83,0,0.04635074,0,0
201,5,0.7,4,60.95890411,2778,-4674,-762,-355,-1128,-1437,-1948,-7844,1046,-62,30,877,59.64,64.97,60.57214126,65.85207477,0,0.0039202,0.022141258,0.022074768
201,5,0.7,4,61.64383562,1887.499595,-4149,-174.1238579,-52.45223319,-679.7529573,-1083.476114,-2210,-7802,1152,-68,33,844,59.64,64.97,60.61,65.91,0,0,0.037858742,0.057925232
201,5,0.7,4,62.32876712,800,-3624,620,246,-398,-490,-2040,-7884,1203.490148,-74.1315645,40.72588639,737.2924796,59.64,64.97,60.61,65.96161544,0,0,0,0.051615442
201,5,0.7,4,63.01369863,455.5004049,-3679.599869,1017.123858,430.2121557,-331.0289487,73.47434749,-1870,-7966,1226,-81,54,578,59.64553711,64.98291992,60.61,65.98,0.005537109,0.012919922,0,0.018384558
201,5,0.7,4,63.69863014,308,-3778,1208,600,-274,706,-2042,-7944,976,-90,79,400,59.69446289,65.09708008,60.61,65.98,0.048925781,0.114160156,0,0
201,5,0.7,4,64.38356164,492,-3872,510,810,-149,1440,-1940.679134,-7799.234375,1038,-80.5,71.2972973,297.2468547,59.7,65.11,60.61,66.00847168,0.005537109,0.012919922,0,0.02847168
201,5,0.7,4,65.06849315,452,-3652,114,971,-27,1925,-1776,-7672,1100,-71,59,236,59.7,65.1118483,60.61,66.05,0,0.001848298,0,0.04152832
201,5,0.7,4,65.75342466,668,-3430,-262,1216,208,2577,-1679.540452,-7684.314017,936,-81,48.2027027,215.1454368,59.7,65.25143574,60.61,66.05,0,0.139587442,0,0
201,5,0.7,4,66.43835616,960.7158637,-3352.707254,-378.8962808,1418.978177,471.7786606,3071.720796,-1534,-7722,772,-91,42,193,59.7,65.35441601,60.60874558,66.04464278,0,0.10298027,-0.001254415,-0.005357216
201,5,0.7,4,67.12328767,1142,-3322,-424,1604,708,3523,-816,-8010,796,-73,70,109,59.7,65.3969534,60.5963646,65.99833706,0,0.042537392,-0.012380981,-0.04630572
201,5,0.7,4,67.80821918,1142.971925,-3460.969667,-423.5462428,1787.425819,903.0809285,4004.390382,-700,-7894,582,-44,45,217,59.7,65.4,60.57501622,65.93920822,0,0.003046597,-0.021348385,-0.059128842
201,5,0.7,4,68.49315068,1144,-3758,-422,1952,1005,4462,-683.4682081,-8068,605.1023622,-15.0749453,34.43181818,244.3680866,59.7,65.4,60.55,65.91,0,0,-0.025016219,-0.029208223
201,5,0.7,4,69.17808219,1162,-4252,-380,2081,980,4855,-678,-8242,654,1,30,266,59.7,65.44785156,60.50545699,65.91,0,0.047851563,-0.044543008,0
201,5,0.7,4,69.8630137,1432,-5072,-324,2242,837,5444,-734.6571736,-8138,732.2757937,-1.091463415,34.94690265,304.5576888,59.690625,65.4590625,60.49,65.91,-0.009375,0.011210937,-0.015456992,0
201,5,0.7,4,70.54794521,1498,-5482,-230,2334,676,5820,-872,-8034,836,-6,43,354,59.64257813,65.40300781,60.49,65.91,-0.048046875,-0.056054687,0,0
201,5,0.7,4,71.23287671,1908,-6206,-128,2448,321,6374,-1216,-8038,950,-17,49,418,59.64,65.4,60.46834873,65.93104766,-0.002578125,-0.003007813,-0.021651272,0.021047656
201,5,0.7,4,71.91780822,1960,-6556,-254,2505,81,6729,-1185.680537,-8066.20991,953.6377473,-47.05818176,54.17438411,458.6315501,59.64,65.4,60.42,65.98,0,0,-0.048348728,0.048952344
201,5,0.7,4,72.60273973,1895.251015,-6996.363916,-452.4741565,2575.082405,91.65349266,7040.088186,-1114.916629,-8111.993844,955.4855403,-91.825801,59.10234357,491.4588823,59.64,65.46934207,60.37361697,66.02370246,0,0.069342066,-0.04638303,0.043702464
201,5,0.7,4,73.28767123,1721.013588,-7512.55905,-721.3365553,2656.469558,124.8789891,7361.722253,-1034,-8136,956,-130,65,533,59.64,65.59340795,60.36,66.06972906,0,0.12406588,-0.01361697,0.046026595
201,5,0.7,4,73.97260274,1467.302009,-8067.413887,-1023.802277,2743.219272,182.5740172,7672.61418,-941.4569516,-8119.925926,942.5185185,-155.2302497,71.86976824,603.6902287,59.64,65.77798928,60.36,66.1160798,0,0.184581334,0,0.04635074
201,5,0.7,4,74.65753425,1164.130569,-8623.756914,-1323.086401,2829.389361,266.6361045,7951.475941,-831.9555126,-8090.074074,917.4814815,-176.6094751,80.43650618,692.1111165,59.64,65.98016967,60.36,66.10134173,0,0.202180395,0,-0.014738074
201,5,0.7,4,75.34246575,841.5135606,-9144.416618,-1582.40401,2909.037636,378.962779,8177.019514,-730,-8074,904,-196,93,767,59.64,66.13154782,60.35940159,66.04355752,0,0.151378148,-0.000598412,-0.057784207
201,5,0.7,4,76.02739726,529.4652738,-9592.221484,-1764.970183,2976.221911,521.4515682,8327.956874,-625.496389,-8081,930.1598985,-212.0807923,131.8321168,809.3930193,59.64,66.242683,60.31714635,65.94220232,0,0.111135176,-0.042255241,-0.101355196
201,5,0.7,4,76.71232877,258,-9930,-1834,3025,696,8383,-566,-8088,992,-230,163,861,59.64578422,66.26019744,60.3084022,65.93940769,0.005784222,0.017514437,-0.008744148,-0.002794629
201,5,0.7,4,77.39726027,18,-10144,-1522,3054,1346,8369,-852,-7742,1134,-261,109,1012,59.68765312,66.20577041,60.35505394,66.10268878,0.041868899,-0.05442703,0.04665174,0.163281091
201,5,0.7,4,78.08219178,298.186713,-10404.85333,-1174.746556,3039.737358,2173.690618,8331.971951,-690,-7772,1114,-314,154,1035,59.73246074,66.22847168,60.36,66.07310547,0.04480762,0.022701275,0.004946061,-0.029583316
201,5,0.7,4,78.76712329,832,-10748,-818,3004,2759,8266,-819.8553163,-7749.703704,1075.667591,-369.8596531,171.7523833,1100.637855,59.76,66.26864018,60.36,65.97408691,0.02753926,0.040168496,0,-0.099018555
201,5,0.7,4,79.45205479,1540.044622,-11336.98982,-397.0006072,2864.626707,2923.196387,8134.321017,-1096.821744,-7708.296296,1030.056018,-424.4582737,183.6539694,1189.430039,59.76,66.16788813,60.36,65.91996908,0,-0.10075205,0,-0.054117839
201,5,0.7,4,80.1369863,2380.587146,-12116.3634,20.72191864,2594.330814,3029.931527,7923.699613,-1352,-7686,1008,-463,188,1234,59.77131687,66.09234245,60.35222752,65.91,0.011316872,-0.075545679,-0.007772479,-0.009969076
201,5,0.7,4,80.82191781,2950,-12836,210,2286,3068,7675,-1522,-8262,1024,-482,159,1209,59.81555556,66.05287588,60.31180588,65.91,0.044238683,-0.039466566,-0.040421644,0
201,5,0.7,4,81.50684932,3162.446211,-13532.59864,208.6502209,1913.364985,2760.331392,7368.651885,-1508,-7756,850,-522,214,1236,59.82,66.07847168,60.27618107,65.91,0.004444444,0.025595799,-0.035624805,0
201,5,0.7,4,82.19178082,3348,-13926,204,1537,2279,6994,-1572.665323,-7790.193939,881.7315436,-553.9848547,211.5,1256.568188,59.82008698,66.11981106,60.2347482,65.90920212,8.70E-05,0.041339379,-0.041432867,-0.000797883
201,5,0.7,4,82.87671233,3650,-13516,38,1273,1962,6551,-1666,-7860,946,-583,209,1271,59.82931893,66.10185185,60.15986828,65.8528618,0.009231955,-0.017959206,-0.074879927,-0.056340322
201,5,0.7,4,83.56164384,3784,-12572,-118,940,1490,5777,-1705.804221,-7990.806061,1063.268456,-611.8923656,232.2277228,1276.496129,59.84957017,66.07103681,60.10245106,65.83,0.020251239,-0.030815037,-0.057417214,-0.022861795
201,5,0.7,4,84.24657534,4003.948133,-11282.58307,-223.3227224,732.8972701,1102.031807,4964.397839,-1756,-8086,1148,-639,260,1284,59.87486263,66.05074018,60.06725219,65.83,0.025292459,-0.02029663,-0.035198877,0
201,5,0.7,4,84.93150685,4148,-10146,-338,598,812,4109,-1946,-7430,994,-663,266,1381,59.91510269,66.05,60.0225,65.83,0.040240059,-0.000740184,-0.044752187,0
201,5,0.7,4,85.61643836,4053.718407,-9476.268539,-612.5648415,535.0701987,630.7533374,3166.070383,-2144.167752,-7485.446182,698.6386351,-717.7486078,271.2891986,1404.461538,59.93794239,66.05240055,60,65.82759945,0.022839697,0.002400549,-0.0225,-0.002400549
201,5,0.7,4,86.30136986,3874,-9078,-812,476,516,2223,-2256,-7640,496,-758,281,1413,59.89555556,66.10185185,60,65.77814815,-0.042386831,0.049451303,0,-0.049451303
201,5,0.7,4,86.98630137,3628.377019,-8942.111388,-659,363.9039287,449.235369,1343.54077,-1872,-8324,782,-759,381,1376,59.88664689,66.11224529,59.990625,65.7709375,-0.008908663,0.010393441,-0.009375,-0.007210648
201,5,0.7,4,87.67123288,3420,-8834,-506,224,419,554,-1898.006944,-8178.117063,743,-792.2351957,378.5,1415.751773,59.93185199,66.05950601,59.94257813,65.82699219,0.045205096,-0.052739279,-0.048046875,0.056054687
201,5,0.7,4,88.35616438,3354,-8668,-760,75,460,-74,-1942,-7978,704,-842,376,1471,59.96826222,66.00856934,59.94,65.83,0.036410229,-0.050936678,-0.002578125,0.003007813
201,5,0.7,4,89.04109589,3470,-11036,-1218,-155,495,-922,-1974.313478,-7896.732702,840,-871.5886466,381.2105263,1494.053982,60.00387083,65.98,59.94,65.82921387,0.035608612,-0.028569335,0,-0.000786133
201,5,0.7,4,89.7260274,3712,-12498,-1220,-306,681,-1468,-2016,-7820,976,-902,394,1517,60.04999143,65.98,59.94,65.77623535,0.046120601,0,0,-0.052978516
201,5,0.7,4,90.4109589,4292.590857,-11557.83297,-1182.079256,-612.9226987,842.4616232,-2236.675546,-2134.679577,-7661.150235,869,-957.6176471,424.9156609,1565.242245,60.06,65.95754901,59.94,65.76,0.01000857,-0.022450992,0,-0.016235352
201,5,0.7,4,91.09589041,4716,-10316,-1088,-827,928,-2830,-2226,-7552,762,-995,490,1610,60.06,65.84900517,59.94,65.76,0,-0.108543835,0,0
201,5,0.7,4,91.78082192,4393.429383,-9882.274182,-758.8124378,-823.6007855,903.4301773,-3051.985825,-2041,-7722.839152,838.0975359,-990,831.3738128,1626.952,60.08735599,65.74706732,59.96735599,65.78290551,0.027355994,-0.101937857,0.027355994,0.022905515
201,5,0.7,4,92.46575342,3561.969877,-9584.547407,-126.2806696,-813.09046,832.1936879,-3204.381801,-1856,-8206,928,-985,1131,1642,60.11932617,65.69,59.99893462,65.83487158,0.031970178,-0.057067316,0.031578626,0.05196606
201,5,0.7,4,93.15068493,2426,-9118,614,-795,718,-3261,-3742,-10504,946,-999,1058,1667,60.07391602,65.69,59.91921718,65.89630137,-0.045410156,0,-0.079717438,0.061429795
201,5,0.7,4,93.83561644,-288.7810928,-7488.85893,1767.239171,-461.9907829,145.0294996,-3194.050701,-2935.703704,-10005.18519,573.7037037,-1107.517549,898.3651349,1747.016859,60.06336,65.68398854,59.85548007,65.91,-0.010556016,-0.006011463,-0.063737113,0.01369863
201,5,0.7,4,94.52054795,-2696,-6186,2556,-140,-664,-3044,-1438.296296,-9078.814815,-117.7037037,-1298.174046,699.5159008,1877.05792,60.08592,65.64211976,59.82129577,65.91,0.02256,-0.041868779,-0.034184296,0
201,5,0.7,4,95.20547945,-3190.243629,-6320.468571,1335.85905,-403,-1356.138449,-2647.449299,-632,-8580,-490,-1436,602,2003,60.12,65.57428523,59.82,65.920347,0.03408,-0.067834524,-0.001295773,0.010346996
201,5,0.7,4,95.89041096,-3382,-6630,-496,-666,-1745,-2334,-1094.220294,-9611,-279.8534371,-1487.230961,608.4282051,2100.122961,60.15408,65.49707944,59.82,65.94975958,0.03408,-0.077205799,0,0.029412583
201,5,0.7,4,96.57534247,-2788.105959,-7262.86204,-1822.85905,-566.5986301,-1275.303254,-2375.917286,-1708,-10642,114,-1526,625,2205,60.17664,65.42709683,59.82,65.97566603,0.02256,-0.069982604,0,0.025906447
201,5,0.7,4,97.26027397,-1726,-8286,-2538,-368,-480,-2482,-1994.779706,-10362,658.6437597,-1563.008651,716.0717949,2349.853282,60.18,65.37812758,59.82,65.98,0.00336,-0.048969255,0,0.004333973
201,5,0.7,4,97.94520548,-680,-9884,-1310,-98,187,-2793,-2130,-10082,1052,-1603,797,2509,60.18,65.33831368,59.82,65.98,0,-0.039813892,0,0
201,5,0.7,4,98.63013699,2084.572698,-7589,-56.32013875,-233.9809758,186.3337923,-3289.873008,-1839.111111,-10460.13743,1092.988926,-1663.489553,774.962963,2651.261885,60.18,65.28651255,59.79,65.98,0,-0.051801131,-0.03,0
201,5,0.7,4,99.31506849,4150,-5294,646,-494,184,-3810,-1298.888889,-11272.05265,1112.529823,-1735.448615,734.037037,2792.003845,60.18257813,65.26,59.76,65.98467961,0.002578125,-0.026512554,-0.03,0.004679611
201,5,0.7,4,100,3248,-5470,-612,-805,27,-4182,-1008,-12034,1150,-1797,712,2952,60.230625,65.26,59.76,66.08438314,0.048046875,0,0,0.099703532
201,5,0.7,1,0,2934,-8150,-1654,-637,-162,-3523,-1061,-12552.24913,1377.890146,-1837.502955,754,3161.619285,60.22444444,65.24611805,59.76,66.15721778,-0.006180556,-0.013881951,0,0.072834642
201,5,0.7,1,0.675675676,1128,-8194,-2414,-316,-83,-3192,-1114,-13080,1576,-1878,796,3378,60.18205761,65.19087242,59.76,66.2157786,-0.042386831,-0.055245629,0,0.058560815
201,5,0.7,1,1.351351351,1470.831316,-8148.202614,-343,-237.5948276,6.245512341,-3055.537273,-522,-13748,1116,-1937,732,3553,60.18,65.13636791,59.76,66.25778591,-0.002057613,-0.054504509,0,0.042007312
201,5,0.7,1,2.027027027,2202,-8040,1728,-209,58,-2921,-834,-13094,1106,-1856,793,3747,60.18,65.07508583,59.76,66.27,0,-0.061282082,0,0.012214089
201,5,0.7,1,2.702702703,3410,-7792,1274,-330,-45,-2608,-669,-12501.04829,1033.696941,-1777.900439,911.6234214,3935.164865,60.18,65.00671228,59.76,66.27,0,-0.068373551,0,0
201,5,0.7,1,3.378378378,2468,-7751.631766,438.42539,-300.0219941,-93.17899914,-2278.307676,-504,-11994,870,-1735,1047,4144,60.18,64.92582934,59.76,66.28188712,0,-0.080882939,0,0.011887123
201,5,0.7,1,4.054054054,1526,-7738,-128,-236,-114,-1988,-2013.125502,-11531.12707,172.0887728,-1857.5,1141.600253,4498.328774,60.18,64.83607233,59.76,66.34364628,0,-0.089757009,0,0.061759159
201,5,0.7,1,4.72972973,1746.902186,-7999.303738,-26.23198442,-95.47800587,-46.5,-1799.863081,-4312,-11284,-426,-1980,1250,4734,60.18,64.78071335,59.76,66.43854019,0,-0.055358983,0,0.094893903
201,5,0.7,1,5.405405405,2124,-8300,242,11,21,-1615,-6042.22133,-11637.62963,124.2573456,-1949.215941,1441.155571,4654.488707,60.18,64.76,59.75770405,66.49,0,-0.020713347,-0.00229595,0.051459815
201,5,0.7,1,6.081081081,2448,-8350,1166,-23,-48,-1342,-7600.777332,-12294.37037,1197.625802,-1881.542992,1705.360394,4447.421858,60.18,64.76,59.71251781,66.49,0,0,-0.045186241,0
201,5,0.7,1,6.756756757,1898,-8384,876,-54,-68,-1155,-8278,-12648,1928,-1814,2000,4160,60.18,64.74376465,59.7,66.50369863,0,-0.016235352,-0.01251781,0.01369863
201,5,0.7,1,7.432432432,2098,-8148,380,-29,-30,-1044,-7490,-11778,2112,-1759,2340,3593,60.18,64.69078613,59.7,66.56512842,0,-0.052978516,0,0.061429795
201,5,0.7,1,8.108108108,2097,-8085.299396,556.5236052,0.577586207,-35.375,-904.2007047,-2740,-9182,2826,-1538,2973,2868,60.18,64.72808467,59.7,66.60695845,0,0.037298541,0,0.041830022
201,5,0.7,1,8.783783784,2096,-8062,740,18,-46,-753,-650,-7352,3074,-1315,3026,2232,60.18,64.76,59.7,66.65035959,0,0.031915327,0,0.043401142
201,5,0.7,1,9.459459459,2188,-8288,748,12,-60,-605,-1358,-4070,1650,-877,2690,1206,60.18,64.76,59.7,66.71089041,0,0,0,0.060530822
201,5,0.7,1,10.13513514,1820,-8044,866,9,-69,-425,-1510.022707,-3262.695468,-292.4474209,-610.6771267,1936.648666,1288.5,60.18,64.76,59.71714635,66.72,0,0,0.017146346,0.009109589
201,5,0.7,1,10.81081081,1866,-8072,968,3,-83,-300,-1564,-2734,-1492,-362,1228,1371,60.18,64.76,59.75940159,66.72,0,0,0.042255241,0
201,5,0.7,2,11.48648649,1930.121622,-8078.206806,861.9183359,-10.40490798,-82.27459016,-180.0487948,-1160.164923,-1957.76324,-619.1826452,-19.95201833,907.3020239,936.0468808,60.204488,64.87876328,59.76,66.84860625,0.024488002,0.118763284,0.000598412,0.128606246
201,5,0.7,2,12.16216216,1970,-8086,650,-20,-80,-58,-380,-1502,546,349,763,170,60.24814801,65.07098849,59.76,67.05309152,0.04366001,0.192225205,0,0.204485275
201,5,0.7,2,12.83783784,1640,-8316,362,-8,-59,75,841.1649231,-1816,1102.182645,714.8831545,784.023915,-587.6329968,60.29335311,65.22251833,59.76,67.21720299,0.045205096,0.151529843,0,0.164111469
201,5,0.7,2,13.51351351,1316,-8286,372,8,-26,83,1686,-2130,1366,1048,832,-1306,60.28285365,65.29036944,59.76,67.17713006,-0.010499454,0.067851105,0,-0.040072927
201,5,0.7,2,14.18918919,1370,-8046,392,37,-22,103,1238,-2096,684,1299,930,-1806,60.24059841,65.32600717,59.76,67.02219418,-0.042255241,0.035637733,0,-0.154935884
201,5,0.7,2,14.86486486,1309.510204,-8066.606414,423.4152918,46.99239926,-25.87755102,102.9728662,316,-2364,-482,1671,841,-2567,60.24,65.37629147,59.76,67.0885385,-0.000598412,0.050284302,0,0.06634432
201,5,0.7,2,15.54054054,1153.510204,-8119.749271,464.6410693,55.36699444,-35.87755102,102.8687376,449,-2752.291583,-626.7387932,1978.183957,576.0637153,-3205.190222,60.24,65.39532725,59.76,67.18068154,0,0.019035778,0,0.092143037
201,5,0.7,2,16.21621622,940.2040816,-8192.413994,513.393697,62.15313099,-49.55102041,102.6535235,582,-3236,-678,2241,246,-3723,60.24,65.29568742,59.76,67.2205462,0,-0.099639826,0,0.039864665
201,5,0.7,2,16.89189189,707.7959184,-8271.586006,567.3895394,67.38015436,-64.44897959,102.2931334,452.352657,-3865.276089,-687.5570287,2474.19361,-32.07302545,-4118.898047,60.24,65.22792768,59.76,67.28299897,0,-0.067759745,0,0.06245277
201,5,0.7,2,17.56756757,494.4897959,-8344.250729,624.3449609,71.07741002,-78.12244898,101.7534765,116.9951691,-4655.620719,-692.5627169,2694.743923,-327.1645837,-4462.965541,60.24,65.18447318,59.76,67.38082124,0,-0.043454499,0,0.097822269
201,5,0.7,2,18.24324324,338.4897959,-8397.393586,681.9763263,73.27424341,-88.12244898,101.0004623,-343.6956522,-5503.449658,-695.2634615,2900.575328,-609.1388675,-4768.855983,60.2044043,65.1400625,59.76,67.48656818,-0.035595703,-0.044410678,0,0.105746942
201,5,0.7,2,18.91891892,278,-8418,738,74,-92,100,-849.3429952,-6305.178673,-697.905659,3089.612216,-847.8600696,-5050.222873,60.18,65.09559531,59.76,67.57275353,-0.024404297,-0.044467196,0,0.086185348
201,5,0.7,2,19.59459459,1030,-8324,796,28,-58,-11,-1319.570048,-6957.223531,-702.7357063,3259.778976,-1013.192383,-5320.719711,60.18,65.04674826,59.76,67.63959521,0,-0.048847048,0,0.06684168
201,5,0.7,2,20.27027027,764,-8245.913426,932.7335766,0.711926092,-83,-45.22207934,-1674,-7356,-712,3409,-1075,-5594,60.16285365,65.04,59.76,67.70196329,-0.017146346,-0.006748259,0,0.062368084
201,5,0.7,2,20.94594595,498,-8196,1032,-20,-108,-75,-1954.580968,-7582.939643,-806.485571,3535.381572,-1009.726726,-5870.770982,60.12059841,65.04,59.76,67.77208972,-0.042255241,0,0,0.070126425
201,5,0.7,2,21.62162162,616,-8182,1000,-37,-97,-138,-2202.002516,-7755.469821,-1003.928776,3644.392286,-877.5645638,-6133.170954,60.12,65.04,59.76,67.8688696,-0.000598412,0,0,0.09677988
201,5,0.7,2,22.2972973,516.4573102,-8283,935.1736973,-51,-88.39705882,-209.1976007,-2334,-7824,-1212,3745,-774,-6367,60.12,65.02845919,59.75505394,67.94665146,0,-0.01154081,-0.004946061,0.077781861
201,5,0.7,2,22.97297297,290,-8384,890,-65,-84,-294,-2364,-7630,-1408,3837,-730,-6559,60.12,64.91960513,59.7084022,67.98864553,0,-0.108854061,-0.04665174,0.041994072
201,5,0.7,2,23.64864865,-168,-8034,944,-82,-100,-412,-2490.488743,-7965.75038,-1383.921357,3907.537386,-715.3939232,-6730.824984,60.12,64.9,59.7,68.05861495,0,-0.019605129,-0.008402198,0.069969416
201,5,0.7,2,24.32432432,-62.88240832,-8051.777778,910.8148148,-111.481199,-109.6764133,-495.7672157,-2662,-8472,-1318,3950,-708,-6867,60.12,64.9,59.7,68.16043103,0,0,0,0.101816078
201,5,0.7,2,25,163.1240722,-8102.888889,849.1851852,-149.1282561,-117.0604288,-567.3630176,-2790,-8768,-1050,3960,-705,-6947,60.12,64.9,59.6644043,68.27517044,0,0,-0.035595703,0.114739419
201,5,0.7,2,25.67567568,376,-8184,816,-183,-120,-654,-2746.565217,-9363.352472,-1012.406015,3936.45614,-705.4437086,-7058.737662,60.12,64.89422959,59.64494606,68.31294131,0,-0.005770405,-0.019458235,0.037770861
201,5,0.7,2,26.35135135,526,-8450,860,-208,-78,-783,-2682,-9996,-1000,3899,-707,-7169,60.12,64.83980256,59.6915978,68.21947507,0,-0.05442703,0.04665174,-0.093466233
201,5,0.7,2,27.02702703,734,-8358,864,-246,-69,-887,-2646,-10378,-1202,3873,-819,-7245,60.10613083,64.83,59.7,68.06126649,-0.013869173,-0.009802565,0.008402198,-0.158208585
201,5,0.7,2,27.7027027,680,-8258.752158,999.7580175,-275.1064577,-90.76271186,-960.1481233,-2600,-10368,-1302,3842,-921,-7239,60.06,64.83,59.7,67.86,-0.046130827,0,0,-0.201266489
201,5,0.7,2,28.37837838,626,-8148,1132,-297,-117,-1012,-2677.259259,-10443.85926,-1195.185185,3779.086704,-1068.800671,-7125.000819,60.01597391,64.83,59.73785874,67.75954859,-0.044026091,0,0.037858742,-0.100451406
201,5,0.7,2,29.05405405,670.4638932,-7976.908537,1087.479344,-308.3369361,-122.355489,-1040.918947,-2820.740741,-10612.60741,-996.8148148,3685.411245,-1258.825943,-6876.833597,60,64.82094286,59.76,67.67388244,-0.015973909,-0.00905714,0.022141258,-0.085666157
201,5,0.7,2,29.72972973,774,-7866,976,-322,-128,-1066,-2898,-10786,-890,3576,-1490,-6605,60,64.72293021,59.76,67.59009024,0,-0.098012646,0,-0.0837922
201,5,0.7,2,30.40540541,1000,-8032,662,-372,-151,-1099,-2856,-10970.8,-952.2222222,3458.827187,-1891.580671,-6352.756698,60,64.65449999,59.77898438,67.46695014,0,-0.068430223,0.018984375,-0.1231401
201,5,0.7,2,31.08108108,832,-8148,694,-372,-158,-1118,-2778,-11160.73333,-1067.777778,3314.501271,-2374.012558,-6067.290882,60,64.62,59.82,67.32,0,-0.03449999,0.041015625,-0.146950138
201,5,0.7,2,31.75675676,868.9811321,-7932.296296,716.4836601,-420.7242128,-180.8282573,-1172.905982,-2736,-11248,-1130,3117,-2608,-5715,59.96214126,64.62,59.82,67.20676787,-0.037858742,0,0,-0.113232131
201,5,0.7,2,32.43243243,953.9622642,-7531.703704,734.5751634,-519.4484256,-217.8585349,-1253.594549,-3588.080988,-10641,-1080.324941,2734.310762,-2530.061037,-5207.223672,59.94,64.60872577,59.8239222,67.17,-0.022141258,-0.011274233,0.003922195,-0.036767869
201,5,0.7,2,33.10810811,1048,-7316,742,-597,-253,-1315,-4708,-10034,-988,2261,-2402,-4588,59.94,64.50005124,59.86746493,67.17,0,-0.108674527,0.043542734,0
201,5,0.7,2,33.78378378,1139.81798,-7423.318651,741.0995763,-637.0074755,-279.3483344,-1346.580907,-5222.442777,-10064.3125,-868.7688817,1841.814801,-2308.8441,-3930.513163,59.93628819,64.45977423,59.90940184,67.17,-0.003711808,-0.040277011,0.041936913,0
201,5,0.7,2,34.45945946,1243.263041,-7678.683068,737.9322034,-670.2788922,-303.1787769,-1370.723757,-5657.838024,-10131,-717.3501171,1424.595549,-2221.49508,-3218.417388,59.92066054,64.44213379,59.93965042,67.17,-0.015627657,-0.017640436,0.030248577,0
201,5,0.7,2,35.13513514,1357.076582,-7982.205952,731.7987288,-696.4108629,-328.169831,-1391.75473,-5959.314259,-10197.6875,-587.2562939,1027.828523,-2127.398521,-2482.862918,59.89765535,64.42647689,59.94,67.21152832,-0.02300519,-0.015656902,0.00034958,0.04152832
201,5,0.7,2,35.81081081,1480,-8234,722,-715,-358,-1414,-6072,-10228,-532,670,-2014,-1755,59.86949516,64.39774435,59.94437106,67.24,-0.028160185,-0.028732539,0.004371065,0.02847168
201,5,0.7,2,36.48648649,1624,-8408,582,-726,-399,-1438,-5822.271622,-9312.188288,-660.3936731,353.7992511,-1865.86972,-1035.298782,59.82439071,64.34512249,59.98941003,67.24,-0.04510445,-0.052621858,0.045038966,0
201,5,0.7,2,37.16216216,1619.313776,-8560.287454,536.783647,-746.2254887,-414.9938937,-1478.601323,-5506,-8156,-916,83,-1675,-319,59.82,64.38056404,60.01632474,67.24,-0.00439071,0.035441548,0.026914709,0
201,5,0.7,2,37.83783784,1605.39706,-8700.680245,496.022748,-776.0931777,-429.5978084,-1533.748646,-5385.728378,-7728.852307,-1356.606327,-182.3485456,-1384.02717,468.0196629,59.82,64.52295211,60.03533323,67.24,0,0.142388068,0.019008489,0
201,5,0.7,2,38.51351351,1582.462786,-8831.765951,459.5714539,-813.8512385,-442.8309669,-1602.108383,-5332,-7530,-1670,-327,-1104,1073,59.82,64.65949662,60.0511587,67.24,0,0.136544508,0.015825468,0
201,5,0.7,2,39.18918919,1550.72389,-8956.132146,427.2839158,-857.7478425,-454.7125922,-1682.346951,-5337.430556,-7507.414483,-1580.828704,-326.193287,-914.3788465,1405.354916,59.8115978,64.69,60.06548115,67.23783042,-0.008402198,0.030503381,0.014322451,-0.002169578
201,5,0.7,2,39.86486486,1510.393305,-9076.366408,399.0142846,-906.031161,-465.2619071,-1773.130765,-5352.444444,-7487.848549,-1334.296296,-323.962963,-728.7474047,1716.004911,59.76494606,64.69,60.0766197,67.21545078,-0.04665174,0,0.011138556,-0.022379639
201,5,0.7,2,40.54054054,1461.683967,-9195.056311,374.6167112,-956.9493654,-474.4981346,-1873.12624,-5375.125,-7471.100987,-961.875,-320.59375,-549.4880968,2003.578467,59.76,64.67136377,60.08604357,67.17381554,-0.004946061,-0.018636227,0.009423868,-0.041635244
201,5,0.7,2,41.21621622,1404.808809,-9314.789433,353.9453467,-1008.750627,-482.4404974,-1980.999792,-5403.555556,-7456.970587,-495.037037,-316.3703704,-378.9833447,2266.704064,59.76,64.62,60.09618853,67.11913321,0,-0.051363773,0.010144953,-0.054682331
201,5,0.7,2,41.89189189,1339.980767,-9438.153348,336.8543421,-1059.683118,-489.1082186,-2095.417838,-5435.819444,-7445.256139,34.74537037,-311.5775463,-219.6155708,2504.010183,59.71898438,64.5661807,60.10949034,67.05761231,-0.041015625,-0.053819298,0.013301812,-0.061520899
201,5,0.7,2,42.56756757,1267.412776,-9567.735634,323.1978482,-1107.995008,-494.5205209,-2215.046791,-5470,-7435.756433,596,-306.5,-73.76719713,2714.125304,59.7,64.55,60.13042001,66.98887914,-0.018984375,-0.016180702,0.020929675,-0.068733172
201,5,0.7,2,43.24324324,1187.317768,-9706.123866,312.8300161,-1151.934471,-498.6966274,-2338.553069,-5504.180556,-7428.270258,1157.25463,-301.4224537,56.17935418,2895.677909,59.7,64.55,60.16872256,66.89214493,0,0,0.038302548,-0.096734211
201,5,0.7,2,43.91891892,1099.90868,-9855.90562,305.6049967,-1189.749676,-501.6557608,-2464.603085,-5536.444444,-7422.596405,1687.037037,-296.6296296,167.841661,3047.296477,59.7,64.52416853,60.21069001,66.82561093,0,-0.025831468,0.041967445,-0.066533992
201,5,0.7,2,44.59459459,1005.398446,-10019.66847,301.376941,-1219.688795,-503.417144,-2591.863257,-5564.875,-7418.533662,2153.875,-292.40625,258.8373011,3167.609489,59.7,64.48,60.24,66.79,0,-0.044168532,0.029309994,-0.035610935
201,5,0.7,2,45.27027027,904,-10200,300,-1240,-504,-2719,-5587.555556,-7415.880821,2526.296296,-289.037037,326.7838524,3255.245427,59.7,64.48,60.24,66.94722656,0,0,0,0.157226562
201,5,0.7,2,45.94594595,675.9541929,-10457.71417,321.216,-1253.50085,-485.904,-2858.50474,-5602.569444,-7414.43667,2772.828704,-286.806713,369.2988927,3308.83277,59.6915978,64.50204761,60.24578422,66.98677478,-0.008402198,0.022047613,0.005784222,0.039548216
201,5,0.7,2,46.62162162,283.668467,-10798.24844,371.808,-1264.646584,-442.752,-3017.677619,-5608,-7414,2862,-286,384,3327,59.64494606,64.6518824,60.28765312,66.769567,-0.04665174,0.149834789,0.041868899,-0.217207775
201,5,0.7,3,47.2972973,-149.3943553,-11141.12563,432.192,-1274.141894,-391.248,-3187.398129,-5492.106284,-7455.054682,2856.044717,-306.2222222,372.2938616,3288.390029,59.64,64.76024662,60.32637376,66.64241338,-0.004946061,0.108364214,0.038720636,-0.127153619
201,5,0.7,3,47.97297297,-499.7714518,-11405.86854,482.784,-1282.691469,-348.096,-3358.545759,-5187.36233,-7560.574984,2838.054204,-356.7777778,340.7625793,3186.22587,59.64,64.83524728,60.3634877,66.56410138,0,0.075000669,0.037113947,-0.078312005
201,5,0.7,3,48.64864865,-644,-11512,504,-1291,-330,-3522,-4758.173932,-7704.095285,2807.841469,-422.5,294.7868526,3041.006156,59.64,64.87472366,60.39579579,66.51830922,0,0.039476373,0.032308089,-0.045792156
201,5,0.7,3,49.32432432,-337.4807047,-11368.53174,437.4375,-1298.611514,-363.616783,-3705.694149,-4268.946882,-7859.149967,2765.219519,-488.2222222,239.7473808,2873.229518,59.64,64.91462425,60.43397354,66.47754631,0,0.039900591,0.038177742,-0.040762911
201,5,0.7,3,50,359.7181208,-11019.25131,291,-1305.29113,-448.8114213,-3906.283688,-3784.086974,-7999.273412,2710.00136,-538.7777778,181.0248635,2703.394589,59.64,64.96542411,60.48527394,66.43630839,0,0.050799857,0.051300406,-0.041237927
201,5,0.7,3,50.67567568,1114.057886,-10585.84523,144.5625,-1312.075181,-562.100349,-4067.731383,-3368,-8098,2642,-559,124,2552,59.64,64.97,60.48188719,66.35809685,0,0.004575894,-0.003386749,-0.07821154
201,5,0.7,3,51.35135135,1592,-10190,78,-1320,-680,-4134,-2946.932051,-8169.116036,2126.368898,-542.0052293,49.65986056,2426.81581,59.64,64.96930185,60.45340958,66.22808965,0,-0.000698148,-0.028477614,-0.130007192
201,5,0.7,3,52.02702703,1811.77279,-9890.348457,178.2623907,-1331.14823,-803.6746406,-4099.353998,-2488.884046,-8235.603143,1088.772354,-496.2639448,-43.19123506,2306.433702,59.64,64.92000407,60.42610068,66.10095956,0,-0.049297781,-0.027308902,-0.127130091
201,5,0.7,3,52.7027027,2010.791007,-9639.117652,436.8338192,-1345.674129,-947.9549036,-3999.982713,-2120.894017,-8284.788679,69.78963269,-429.6406879,-122.4467131,2167.584742,59.630625,64.9,60.42,66.02986175,-0.009375,-0.020004071,-0.006100676,-0.071097817
201,5,0.7,3,53.37837838,2184.295693,-9398.38545,790.3906706,-1361.72145,-1109.856773,-3842.736231,-1970,-8304,-390,-350,-156,1987,59.58257813,64.9,60.42,65.99042999,-0.048046875,0,0,-0.039431758
201,5,0.7,3,54.05405405,2327.527892,-9130.229718,1175.609329,-1377.433944,-1286.396233,-3634.464634,-2210,-8256,404,-211,49,1679,59.58,64.9,60.42,65.90336739,-0.002578125,0,0,-0.087062602
201,5,0.7,3,54.72972973,2435.728648,-8796.728322,1529.166181,-1390.955366,-1474.589269,-3382.018007,-1972,-8076.706244,282.6666667,-140.2850755,42.67080064,1545.101914,59.58,64.9,60.42,65.83,0,0,0,-0.073367386
201,5,0.7,3,55.40540541,2504.139002,-8359.959127,1787.737609,-1400.429467,-1671.451863,-3092.246435,-1530,-7816.797566,57.33333333,-89.28271556,26.5638235,1455.364962,59.58,64.9,60.46785156,65.83,0,0,0.047851563,0
201,5,0.7,3,56.08108108,2528,-7782,1888,-1404,-1874,-2772,-1292,-7684,-64,-24,5,1335,59.58,64.9,60.49,65.83,0,0,0.022148437,0
201,5,0.7,3,56.75675676,1972,-6302,1718,-1306,-2106,-2190,-1768,-8672,300,87,-33,1110,59.58,64.9,60.49,65.83,0,0,0,0
201,5,0.7,3,57.43243243,1260,-3706,1446,-1181,-2408,-1291,-1733.072369,-8655.978828,477.6179433,84.17492711,-29.39941691,937.6238468,59.58,64.9,60.49,65.83,0,0,0,0
201,5,0.7,3,58.10810811,2960,-1930,408,-1090,-1922,-974,-1641.533746,-8613.83419,634.5237874,76.88921283,-20.11370262,770.4942533,59.58,64.9001781,60.49,65.83,0,0.000178099,0,0
201,5,0.7,4,58.78378378,4108,-2868,-1354,-595,-492,-1832,-1513.250539,-8554.444399,768.3069176,66.9271137,-7.416909621,614.9956572,59.58,64.91723998,60.49,65.83,0,0.017061877,0,0
201,5,0.7,4,59.45945946,3240,-3310,-1712,-330,130,-1376,-1368.089155,-8486.68777,876.5567188,56.0728863,6.416909621,477.5124961,59.58,64.94712497,60.49,65.84120293,0,0.029884999,0,0.011202931
201,5,0.7,4,60.13513514,2409.82384,-3524.369462,-1232,-56.35184457,332.9278786,-881.4340095,-1225.915999,-8419.442618,956.8625762,46.11078717,19.11370262,364.4292078,59.58,64.96846123,60.49,65.90340525,0,0.021336251,0,0.06220232
201,5,0.7,4,60.81081081,1573.287858,-3680.879747,-176,223.1811991,480.824781,-363.4649645,-1106.597478,-8361.587256,1006.813875,38.82507289,28.39941691,282.1302298,59.58,64.97,60.49735718,65.91,0,0.001538775,0.007357178,0.006594749
201,5,0.7,4,61.48648649,927.1079468,-3804.950158,880,489.3736432,571.3092929,177.4865627,-1030,-8322,1024,36,32,237,59.58067383,64.97078613,60.52280884,65.91,0.000673828,0.000786133,0.02545166,0
201,5,0.7,4,62.16216216,668,-3922,1360,723,602,741,-981.8305142,-8294.21199,988.64,39.39383234,32,213.9886657,59.62608398,65.02376465,60.54606323,65.91,0.045410156,0.052978516,0.023254395,0
201,5,0.7,4,62.83783784,776,-4057.503165,870.9451411,907.5206584,469.3586262,1337.655899,-937.2693285,-8267.708489,904.32,48.90149702,32,194.4272489,59.64,65.03926852,60.54844233,65.9087299,0.013916016,0.015503873,0.002379095,-0.001270103
201,5,0.7,4,63.51351351,884,-4132,134,1087,261,1975,-900.3928856,-8245.298993,803.68,63.51224553,32,179.2714993,59.64,65.0339676,60.53719113,65.89976603,0,-0.005300925,-0.011251201,-0.008963869
201,5,0.7,4,64.18918919,872,-3876,-296,1306,122,2666,-875.2776285,-8229.792998,719.36,82.21532936,32,169.4771664,59.64,65.02477361,60.51778141,65.88489718,0,-0.009193983,-0.019409714,-0.01486885
201,5,0.7,4,64.86486486,1017.9375,-3901.291311,-489.954918,1498.502178,132.9375,3148.621093,-866,-8224,684,104,32,166,59.64,65.01315565,60.49344034,65.86731523,0,-0.011617963,-0.024341077,-0.01758195
201,5,0.7,4,65.54054054,1339,-3974.610162,-641.7377049,1678.104303,157,3547.699688,-1152,-8464,936,145,16,186,59.64,65.00058279,60.46739505,65.85021206,0,-0.012572864,-0.026045287,-0.017103168
201,5,0.7,4,66.21621622,1660.0625,-4092.123933,-740.6516393,1849.904278,181.0625,3914.928439,-494,-8090,958,147,43,173,59.64,64.9885241,60.4428727,65.83677956,0,-0.012058686,-0.024522346,-0.013432503
201,5,0.7,4,66.89189189,1806,-4250,-776,2019,192,4302,-571.8125,-8169.6875,997.1587827,139.0935799,43.79240188,193.676381,59.64,64.97844867,60.42310045,65.8302096,0,-0.01007543,-0.019772253,-0.006569957
201,5,0.7,4,67.56756757,1651,-4751.427698,-599.9543726,2189.067681,84.23746612,4715.636274,-743,-8345,1051.921045,118.7495463,44.06352212,245.9703493,59.64,64.97182557,60.40918732,65.83548864,0,-0.006623096,-0.013913126,0.00527904
201,5,0.7,4,68.24324324,1496,-5480,-376,2345,-113,5139,-914.1875,-8520.3125,1115.222785,91.03073956,44.3028813,315.279143,59.63971968,64.97125545,60.39755509,65.85363904,-0.00028032,-0.000570121,-0.011632234,0.0181504
201,5,0.7,4,68.91891892,1645,-6221.51786,-289.0456274,2481.144545,-337.1953969,5611.934135,-992,-8600,1180,61,45,387,59.63129088,65.01010044,60.38681607,65.87716544,-0.0084288,0.038844987,-0.010739019,0.0235264
201,5,0.7,4,69.59459459,1794,-6776,-250,2594,-546,6039,-939.4788136,-8480.46875,1243.585193,21.60022686,64.02870325,474.9387384,59.61537408,65.08765413,60.37568489,65.89838784,-0.0159168,0.077553691,-0.011131183,0.0212224
201,5,0.7,4,70.27027027,1669.625,-6961.468224,-414.9412827,2676.194546,-695.7509058,6360.874626,-858,-8294,1322,-23,83,561,59.59772928,65.18268359,60.36287616,65.90962624,-0.0176448,0.095029457,-0.012808725,0.0112384
201,5,0.7,4,70.94594595,1396,-7062.41782,-789.6767538,2742.841461,-832.5841385,6643.056788,-792.5211864,-8141.53125,1479.204878,-58.95771889,83.74358974,623.2169664,59.58411648,65.27395587,60.3476394,65.90897805,-0.0136128,0.091272284,-0.015236766,-0.000648186
201,5,0.7,4,71.62162162,1122.375,-7166.658507,-1194.073848,2807.817646,-932.3753019,6886.210556,-756,-8056,1590,-99,84,663,59.58015817,65.34104553,60.33059404,65.90499012,-0.003958306,0.067089656,-0.017045357,-0.003987929
201,5,0.7,4,72.2972973,998,-7362,-1448,2885,-971,7091,-806,-8230,1584,-160,66,676,59.58541866,65.39451454,60.31196276,65.89827352,0.005260486,0.053469013,-0.018631276,-0.006716609
201,5,0.7,4,72.97297297,1023.473373,-8065.713479,-1557.661623,3012.477768,-805.2839301,7256.265333,-1070,-7760,1446,-200,55,741,59.59728633,65.44521141,60.29194471,65.88913142,0.011867672,0.050696867,-0.020018057,-0.009142094
201,5,0.7,4,73.64864865,1080,-9026,-1608,3096,-496,7392,-980,-8242,1402,-238,99,683,59.61461277,65.49335282,60.27073901,65.87786704,0.017326442,0.048141415,-0.0212057,-0.011264382
201,5,0.7,4,74.32432432,1201.1818,-9868.319009,-951.562212,3087.674791,-145.5069952,7522.423364,-1034,-8002,1056,-272,120,779,59.63624957,65.53915548,60.2485448,65.86478357,0.021636797,0.045802656,-0.022194204,-0.013083474
201,5,0.7,4,75,1336,-10506,-160,3066,230,7611,-976,-8264,1154,-274,106,812,59.66104831,65.58283607,60.22556123,65.8501842,0.024798738,0.043680591,-0.02298357,-0.01459937
201,5,0.7,4,75.67567568,1408,-10774,20,2995,549,7640,-1068,-8458.406637,1336.1586,-293.1809403,97.80232558,859.8119099,59.68786057,65.62461129,60.20198743,65.83437213,0.026812264,0.04177522,-0.023573798,-0.01581207
201,5,0.7,4,76.35135135,1160,-10660.58696,-476.326087,2919.09378,934.5353988,7631.361891,-1160,-8556,1460,-333,94,918,59.71553795,65.66469783,60.17802255,65.81765055,0.027677374,0.040086543,-0.023964888,-0.016721575
201,5,0.7,4,77.02702703,912,-10492,-1086,2860,1353,7606,-910,-8434,1198,-409,146,986,59.74293202,65.70331239,60.15386571,65.80032267,0.02739407,0.038614559,-0.02415684,-0.017327883
201,5,0.7,4,77.7027027,916,-10398,-1240,2834,1783,7458,-1218,-8302,1348,-412,107,1026,59.76889437,65.74067166,60.12971605,65.78269167,0.025962351,0.03735927,-0.024149653,-0.017630995
201,5,0.7,4,78.37837838,1192,-10888,-880,2774,1962,7368,-1331.449441,-7990.344901,1275.609442,-419.4110644,126.5888889,1068.046138,59.79227658,65.77699234,60.10577272,65.76506076,0.023382216,0.036320674,-0.023943328,-0.017630911
201,5,0.7,4,79.05405405,1536,-11462,-210,2565,1998,7158,-1414,-7764,1146,-431,148,1095,59.81193025,65.81249111,60.08223486,65.74773313,0.019653667,0.035498772,-0.023537865,-0.017327631
201,5,0.7,4,79.72972973,2104.325139,-11911.88739,191.064999,2299.783805,1779.70564,6957.343809,-1499.451122,-7805.236306,1019.20739,-452.7348485,149.8429293,1099.292208,59.82772347,65.84843104,60.0593016,65.73101198,0.015793216,0.035939929,-0.022933264,-0.016721155
201,5,0.7,4,80.40540541,2516,-12142,412,2038,1398,6745,-1602,-7918,882,-469,152,1103,59.84413181,65.8887574,60.03717207,65.71520049,0.01640834,0.040326362,-0.022129524,-0.015811483
201,5,0.7,4,81.08108108,2566,-11976,464,1839,1046,6488,-1790,-8374,744,-470,199,1113,59.85980927,65.9282176,60.01604542,65.70060188,0.01567746,0.039460203,-0.021126647,-0.014598615
201,5,0.7,4,81.75675676,2434.454355,-11408.92351,234.1109881,1689.626907,674.44701,6058.982047,-1652,-7832,734,-509,181,1146,59.87234054,65.9602294,59.99600258,65.68741801,0.012531276,0.032011797,-0.020042841,-0.013183872
201,5,0.7,4,82.43243243,2166.464265,-10575.65897,-215.3335794,1561.681834,324.2790606,5499.447626,-1676.566038,-7954.535433,820,-531.0603448,199.3244048,1156.112275,59.87931033,65.97821055,59.97385033,65.67292121,0.006969787,0.017981146,-0.022152252,-0.014496793
201,5,0.7,4,83.10810811,1952,-10058,-524,1442,169,4923,-1714,-8080,906,-551,228,1160,59.88,65.98,59.94978948,65.6569576,0.00068967,0.001789453,-0.024060856,-0.015963614
201,5,0.7,4,83.78378378,1827.239439,-9950.993868,-632.5182724,1341.640111,240.5086744,4385.410223,-1737.179185,-8083.405743,872.9601064,-578.5510381,247.5533805,1158.5,59.88,65.98,59.92613822,65.64113339,0,0,-0.023651258,-0.015824211
201,5,0.7,4,84.45945946,1725.841942,-9891.048837,-710.2591362,1248.128096,406.4617932,3829.178096,-1758,-8086,810,-607,265,1157,59.88,65.98,59.90521476,65.62705481,0,0,-0.020923459,-0.014078584
201,5,0.7,4,85.13513514,1684,-9772,-740,1113,594,3198,-1782.897381,-8094.104575,718.5894405,-630.515104,280.5572546,1178.849799,59.88202942,65.97810826,59.8893373,65.61632807,0.002029421,-0.001891741,-0.015877457,-0.010726735
201,5,0.7,4,85.81081081,1768,-9224,-556,823,802,2399,-1807.115357,-8104.718954,611.5169425,-652.610754,294.8997143,1228.92182,59.92498119,65.93241709,59.88082405,65.61055941,0.042951766,-0.045691167,-0.008513254,-0.005768661
201,5,0.7,4,86.48648649,1999.908991,-8994.642094,-534.808933,565.5138594,944.1440308,1686.886585,-1818,-8110,560,-678,309,1284,59.95302248,65.87577258,59.89714635,65.61,0.028041297,-0.056644511,0.016322299,-0.00055941
201,5,0.7,4,87.16216216,2280,-8802,-528,337,1043,1022,-1681,-8089.170306,607.9491525,-709.6119924,322.1547988,1341.161516,59.96886463,65.80816071,59.93940159,65.61,0.015842142,-0.067611872,0.042255241,0
201,5,0.7,4,87.83783784,2466.299895,-8514.146986,-558.962963,143.2376433,1098.358977,390.4958069,-1544,-8038,698,-748,337,1402,59.98377756,65.73851557,59.94,65.64669254,0.01491293,-0.06964514,0.000598412,0.036692545
201,5,0.7,4,88.51351351,2654,-8206,-616,-30,1143,-214,-1708.406375,-7829.829694,827.0508475,-800.0611631,357.8861689,1462.717308,60.00569605,65.67953072,59.93965607,65.69611851,0.021918499,-0.058984845,-0.000343932,0.049425961
201,5,0.7,4,89.18918919,2925.726829,-7879.392195,-693.037037,-191.4410022,1203.809645,-817.3940407,-1920,-7652,914,-854,385,1513,60.04516394,65.63229376,59.92905317,65.72584539,0.039467887,-0.047236968,-0.010602896,0.029726882
201,5,0.7,4,89.86486486,3182,-7650,-744,-340,1240,-1370,-2004.277449,-7860.373984,836.9943503,-894.7409723,422.0518329,1539.480214,60.0695719,65.58790991,59.9080288,65.74930091,0.024407963,-0.044383846,-0.021024373,0.023455523
201,5,0.7,4,90.54054054,3328.19161,-7594.468196,-606.3422053,-485.3221894,1209.541485,-1838.897974,-2046,-8092,682,-935,466,1567,60.08728235,65.54525685,59.88256101,65.7599006,0.017710441,-0.042653054,-0.025467787,0.010599692
201,5,0.7,4,91.21621622,3474,-7538,-408,-603,1140,-2238,-2051.100267,-8129.626016,405.0056497,-996.7376374,506.5348581,1629.952741,60.10217887,65.50387768,59.84000921,65.76,0.01489652,-0.041379171,-0.042551805,9.94E-05
201,5,0.7,4,91.89189189,3781.813268,-7199.226415,-323.3310171,-689.7493639,977.5568486,-2629.040761,-2056,-8144,206,-1036,562,1700,60.11317815,65.46285765,59.82444444,65.76,0.010999283,-0.04102003,-0.015564762,0
201,5,0.7,4,92.56756757,3996,-6908,-218,-733,782,-2842,-2075.927842,-8074,272.1144452,-1032.629195,683.0885487,1744.126136,60.11919688,65.42128202,59.86868313,65.76,0.00601873,-0.041575631,0.044238683,0
201,5,0.7,4,93.24324324,235,-19228,204.7319732,-624.8644068,675.3804483,-2207,-2134,-8004,460,-1022,881,1787,60.12,65.37815937,59.88,65.80418031,0.000803122,-0.043122655,0.011316872,0.04418031
