locomotion_mode,terrain_info,walk_speed_info,gait_phase,gait_percentage,left_accel_x,left_accel_y,left_accel_z,left_gyro_x,left_gyro_y,left_gyro_z,right_accel_x,right_accel_y,right_accel_z,right_gyro_x,right_gyro_y,right_gyro_z,left_hip_angle,left_knee_angle,right_hip_angle,right_knee_angle,left_hip_angle_vel,left_knee_angle_vel,right_hip_angle_vel,right_knee_angle_vel
201,10,1.1,2,48.50746269,586,-9358,286,-1099,-732,-2099,-6724,-8800,-1718,-443,-53,1966,59.55249029,64.13355469,60.24,67.15104452,-0.044420334,-0.056642748,0.008402198,-0.018955479
201,10,1.1,3,49.25373134,-72,-9930,-88,-1228,-752,-2178,-5108.560406,-8653.4375,-2380.375588,-609.6933016,-142.21875,2218.925551,59.52,63.99,60.24,67.09,-0.032490288,-0.143554687,0,-0.061044521
201,10,1.1,3,50,64,-11968,332,-1272,-563,-2482,-3382.831472,-8331,-3000.111634,-774.255157,-338.5,2759.211601,59.52,64.02388962,60.27785874,67.05208132,0,0.033889618,0.037858742,-0.037918677
201,10,1.1,3,50.74626866,151.7024378,-11691.11111,535.2052484,-1313.454787,-549.8770925,-2703.002843,-2008.686802,-8008.5625,-3458.791863,-899.9394339,-534.78125,3296.39185,59.52,64.07486452,60.3,66.99983263,0,0.050974904,0.022141258,-0.052248691
201,10,1.1,3,51.49253731,222.0696014,-11176.88889,678.4104967,-1350.782949,-542.9941018,-2891.076338,-1448,-7862,-3638,-950,-624,3540,59.52,64.12547955,60.3,66.90311173,0,0.050615031,0,-0.096720905
201,10,1.1,3,52.23880597,296,-10900,872,-1367,-541,-3086,-3082,-8558,-496,-594,217,3518,59.52,64.13,60.3,66.76905284,0,0.004520447,0,-0.134058886
201,10,1.1,3,52.98507463,404.6695464,-11943.73691,1339.894096,-1309,-680.5,-3305.516695,-2989.650583,-8534.210071,-730.6875,-626.8125,233.0917351,3359.62618,59.52,64.13,60.3,66.64,0,0,0,-0.129052841
201,10,1.1,3,53.73134328,472,-13206,1680,-1251,-820,-3529,-2754.401554,-8464.893523,-1247,-699,242.85932,3051.199615,59.52,64.13,60.3,66.58512654,0,0,0,-0.054873465
201,10,1.1,3,54.47761194,-1098,-13498,1230,-1318,-692,-3747,-2438.951749,-8353.130213,-1763.3125,-771.1875,247.697245,2739.173243,59.51446289,64.13645996,60.30553711,66.57,-0.005537109,0.006459961,0.005537109,-0.015126535
201,10,1.1,3,55.2238806,-846.5788152,-13110.55517,1061.843747,-1318.436578,-778.2134437,-3927.726107,-2106,-8202,-1998,-804,249,2570,59.46553711,64.19354004,60.35446289,66.57,-0.048925781,0.057080078,0.048925781,0
201,10,1.1,3,55.97014925,-281.3798525,-12246.6659,956.92919,-1318.565735,-955.7602207,-4091.153008,-1700,-7772,-1778,-368,-12,2538,59.46,64.2,60.36,66.52453118,-0.005537109,0.006459961,0.005537109,-0.045468819
201,10,1.1,3,56.71641791,314,-11354,794,-1319,-1103,-4251,-2433,-7799,-526.9932886,-212.9491581,19.55652174,2350.648406,59.46,64.2,60.36,66.42,0,0,0,-0.104531181
201,10,1.1,3,57.46268657,868,-10562,388,-1360,-1177,-4410,-3166,-7826,552,-151,64,2081,59.46,64.15214844,60.36,66.37731649,0,-0.047851563,0,-0.042683513
201,10,1.1,3,58.20895522,2440,-10204,-436,-1506,-1000,-4611,-2961,-7794,438.0294451,-178,89.94347826,1862.17874,59.46,64.13598396,60.36,66.32157032,0,-0.016164474,0,-0.055746169
201,10,1.1,3,58.95522388,4760,-12192,470,-1638,-910,-4897,-2756,-7762,190,-205,103,1670,59.46,64.18119079,60.36,66.230037,0,0.045206823,0,-0.091533322
201,10,1.1,3,59.70149254,5345.106383,-12984.96875,1454.58948,-1782.270881,-1055.233705,-4738.599244,-2910,-8358,-246,-149,28,1530,59.46,64.22360719,60.36,66.16667302,0,0.042416406,0,-0.063363978
201,10,1.1,4,60.44776119,5560,-13312,2074,-1865,-1314,-4425,-2947.494701,-8335.64186,-151.8794248,-57.68453865,15.15945077,1378.516832,59.46,64.27,60.36,66.12,0,0.046392808,0,-0.046673018
201,10,1.1,4,61.19402985,4850.3125,-12551.00666,2183.465145,-1849.951557,-1609.692913,-3961.558287,-2984,-8282,40,2,7,1221,59.41898438,64.36073335,60.40101563,66.06558594,-0.041015625,0.090733349,0.041015625,-0.054414063
201,10,1.1,4,61.94029851,3289,-10747.01775,2260.135685,-1808.454153,-1965.03259,-3328.802409,-3191.510917,-8089.35814,335.9121195,-3.777777778,-6.686046512,1072.101269,59.4,64.43294933,60.42,66.05980256,-0.018984375,0.072215984,0.018984375,-0.005783373
201,10,1.1,4,62.68656716,1727.6875,-8618.519969,2305.238382,-1745.979672,-2263.605971,-2731.895326,-3368,-7928,658,-11,-15,897,59.4,64.47668003,60.42,66.11422959,0,0.043730695,0,0.05442703
201,10,1.1,4,63.43283582,1018,-6884,2320,-1668,-2389,-2376,-3128,-8386,872,-13,-9,620,59.4,64.48,60.42,66.12,0,0.003319972,0,0.005770405
201,10,1.1,4,64.17910448,1894,-5560.869485,661,-1526.381212,-1715.702892,-2264.550404,-3234,-7946,782,-27,19,511,59.4,64.48,60.42,66.12,0,0,0,0
201,10,1.1,4,64.92537313,2770,-4634,-998,-1284,-522,-2159,-2986.366197,-7952.267442,615.7726757,-41.69162996,32.2523511,318,59.4,64.51790534,60.46785156,66.20758977,0,0.037905336,0.047851563,0.087589775
201,10,1.1,4,65.67164179,1842.624319,-4310.432703,-991.2834186,-702.3631486,767.7479129,-1941.556381,-2638,-7960,442,-50,38,125,59.4,64.56667475,60.49,66.29578053,0,0.048769417,0.022148438,0.088190752
201,10,1.1,4,66.41791045,466,-3982,-968,-172,1830,-1614,-2478,-7962,334,-15,12,16,59.4,64.60744551,60.49,66.35768668,0,0.040770758,0,0.061906149
201,10,1.1,4,67.1641791,-298,-3020,40,-53,2248,-1076,-2378,-7694,184,5,-5,-77,59.4,64.64805746,60.49,66.40400074,0,0.040611947,0,0.046314067
201,10,1.1,4,67.91044776,-830,-3366,1384,234,2632,-434,-2278,-8206,-70,79,-35,-180,59.4,64.69613853,60.48944753,66.41780582,0,0.048081068,-0.000552473,0.013805078
201,10,1.1,4,68.65671642,-593.1749666,-3814.986896,1230.897959,465.9866434,2630.874464,190.8629369,-2179.22843,-8157.556867,-28.67124857,120.146352,-29.2962963,-292.5160718,59.4,64.7840057,60.44661406,66.26286994,0,0.087867171,-0.042833467,-0.154935884
201,10,1.1,4,69.40298507,-47.01659989,-4274.937893,916.462585,671.2674573,2627.526705,807.7987001,-2078.067165,-8064.669289,65.9908362,150.8077439,-18.7037037,-400.0358137,59.4,64.84959038,60.41075579,66.20153767,0,0.065584682,-0.035858268,-0.061332271
201,10,1.1,4,70.14925373,562,-4486,658,856,2622,1430,-1960,-8006,170,179,-13,-448,59.4,64.88798896,60.39510717,66.21668548,0,0.038398578,-0.015648626,0.015147811
201,10,1.1,4,70.89552239,1248.289504,-4335.111111,534.9532861,1009.958669,2437.853447,2081.902126,-1799.050899,-7996.379479,268.6717901,212.909465,-25.50080515,-444.0342537,59.4,64.92805746,60.38094692,66.24271378,0,0.040068502,-0.014160244,0.0260283
201,10,1.1,4,71.64179104,2029.498553,-4054.888889,439.0448942,1148.687831,2032.108062,2739.205381,-1610.563255,-7991.207335,380.6631678,244.8436214,-48.89049919,-432.9573962,59.4,64.97612709,60.35606965,66.27349726,0,0.048069637,-0.02487727,0.030783482
201,10,1.1,4,72.3880597,2664,-3904,306,1317,1605,3342,-1442,-7980,512,259,-62,-416,59.4,65.06348701,60.27006428,66.3313138,0,0.087359915,-0.086005378,0.057816543
201,10,1.1,4,73.13432836,3161.151316,-4482.349805,-33.2595217,1611.190805,1235.036981,3850.020705,-1310.632565,-7769.570137,731.7545455,253.1973684,-62.72826087,-358.0428091,59.4,65.13044843,60.24,66.35,0,0.066961424,-0.030064275,0.018686198
201,10,1.1,4,73.88059701,3418,-5172,-286,1847,796,4341,-1194,-7568,880,238,-63,-275,59.4,65.17148741,60.24,66.35,0,0.041038975,0,0
201,10,1.1,4,74.62686567,3218.852535,-5362.650195,-209,1896.299784,128.1444311,4918.449589,-1088,-7810,644,187,-20,-206,59.41804085,65.22424662,60.21497942,66.29973402,0.018040848,0.052759207,-0.025020576,-0.050265984
201,10,1.1,4,75.37313433,2902,-5442,-132,1943,-578,5432,-722,-7826,706,181,-5,-89,59.46,65.26,60.18,66.2,0.041959152,0.035753385,-0.034979424,-0.099734016
201,10,1.1,4,76.11940299,2682,-5132,-394,2086,-1102,5754,-756.0227015,-7910.506949,720.7391288,164.6917789,8.66683031,-5.424981654,59.50000488,65.2053125,60.18,66.14750381,0.040004876,-0.0546875,0,-0.052496189
201,10,1.1,4,76.86567164,1980.326382,-5194.084446,-865.5444331,2182.817461,-1665.021366,6176.163932,-838.9342919,-8041.80903,728.1635047,136.7253585,21.71759901,64.98118909,59.52925348,65.18324123,60.170625,66.10174529,0.029248607,-0.022071272,-0.009375,-0.045758519
201,10,1.1,4,77.6119403,1060,-5350,-1384,2292,-1986,6574,-942,-8110,744,102,35,137,59.54657747,65.21097866,60.12257813,66.05848518,0.017323987,0.027737429,-0.048046875,-0.043260112
201,10,1.1,4,78.35820896,332,-5794,-1766,2514,-1984,6830,-1129.891127,-7998.919246,947.3212114,51.76984046,52.42019544,211.5273591,59.56177176,65.24539444,60.12,66.01677613,0.015194286,0.034415783,-0.002578125,-0.041709047
201,10,1.1,4,79.10447761,-57.13961838,-6357.067807,-1857.115376,2634.565063,-1705.21843,7027.400389,-1266,-7864,1138,-8,63,297,59.58260409,65.25850397,60.11940159,65.97565439,0.020832338,0.013109529,-0.000598412,-0.041121747
201,10,1.1,4,79.85074627,-320,-6966,-1930,2717,-1196,7183,-1254,-7832,750,-64,11,421,59.61739218,65.15286587,60.07714635,65.9243619,0.034788085,-0.105638103,-0.042255241,-0.051292489
201,10,1.1,4,80.59701493,-492,-7558,-2078,2772,-654,7290,-1194.6863,-7624.271079,826,-89.32823907,59.21242775,513.8616567,59.65403987,65.11,60.06,65.91980256,0.036647691,-0.042865866,-0.017146346,-0.004559332
201,10,1.1,4,81.34328358,-486,-8150,-2374,2766,358,7400,-1080,-7442,902,-115,110,579,59.68919189,65.11,60.06,65.97422959,0.035152025,0,0,0.05442703
201,10,1.1,4,82.08955224,-532,-8398,-2514,2745,1135,7359,-864,-8092,800,-174,113,611,59.72600078,65.11,60.06,65.98,0.036808884,0,0,0.005770405
201,10,1.1,4,82.8358209,-48.08098592,-8937.271508,-2293.631078,2695.179746,2094.018089,7253.974532,-704,-8120,972,-220,123,711,59.76396973,65.11052054,60.05797852,65.98,0.037968947,0.000520542,-0.002021484,0
201,10,1.1,4,83.58208955,932,-9592,-1800,2609,2667,7169,-1001.851429,-8057.272727,736,-260.6450041,134.7710084,830.2895159,59.8101123,65.1530525,59.92174805,65.98,0.046142578,0.042531956,-0.136230469,0
201,10,1.1,4,84.32835821,2465.32026,-10115.86216,-633.9815841,2434.729413,2601.581353,7161.444826,-1332,-7936,500,-302,149,944,59.82,65.20342373,59.89251781,65.96539589,0.009887695,0.050371234,-0.029230237,-0.014604112
201,10,1.1,4,85.07462687,4012,-10668,530,2184,2419,7153,-1369.372452,-7745.727273,764,-348.6804029,168.4147059,1031.171123,59.82,65.25104079,59.93770405,65.91267861,0,0.047617058,0.045186241,-0.052717281
201,10,1.1,4,85.82089552,4814,-11380,910,1878,1606,7040,-1404,-7614,1028,-402,191,1106,59.84240356,65.30176348,59.94,65.91,0.02240356,0.050722695,0.00229595,-0.002678608
201,10,1.1,4,86.56716418,5098.437901,-11207.6478,549.1982116,1687.40676,816.4362104,6846.781584,-1527.61767,-7692.491739,1000.621118,-477.2983988,215.0411765,1186.71875,59.88249845,65.32981106,59.94,65.90959512,0.040094892,0.028047574,0,-0.000404875
201,10,1.1,4,87.31343284,5212,-10884,36,1561,164,6579,-1734,-7882,970,-542,239,1232,59.90770354,65.31185185,59.94,65.87111111,0.025205088,-0.017959206,0,-0.038484014
201,10,1.1,4,88.05970149,4685,-10420.3522,-244.8316778,1490.531176,-293.1682458,6192.190614,-2050,-8350,966,-569,260,1229,59.92886843,65.28103681,59.94,65.80507889,0.021164887,-0.030815037,0,-0.066032223
201,10,1.1,4,88.80597015,4158,-10108,-432,1439,-590,5758,-2100.140591,-8141,948.4444198,-607.0549371,293.0269262,1212.239866,59.93964849,65.26074018,59.94,65.76158611,0.010780065,-0.02029663,0,-0.043492779
201,10,1.1,4,89.55223881,4192,-10124,-516,1395,-712,5383,-2146,-7932,912,-650,330,1184,59.94,65.26,59.94,65.76,0.000351508,-0.000740184,0,-0.001586109
201,10,1.1,4,90.29850746,3780,-9830,-796,1287,-639,4689,-2452.550898,-7948.906542,800.1495173,-693.2722017,363.4201559,1144.150144,59.94205761,65.26,59.93794239,65.76,0.002057613,0,-0.002057613,0
201,10,1.1,4,91.04477612,3616,-9508,-1258,1197,-432,4123,-2718,-7986,668,-735,394,1111,59.98444444,65.26,59.89555556,65.76,0.042386831,0,-0.042386831,0
201,10,1.1,4,91.79104478,3780.924988,-9575.407407,-1502.413855,1029.049121,-13.14238338,3308.489254,-2600.874598,-8076.093458,583.230615,-770.7847175,418.5,1098.39011,60,65.2475,59.88,65.7709375,0.015555556,-0.0125,-0.015555556,0.0109375
201,10,1.1,4,92.53731343,4180.961088,-9700.592593,-1680.873594,790.3142203,524.2438357,2355.442242,-2406,-8146,538,-805,443,1093,60,65.1834375,59.88,65.82699219,0,-0.0640625,0,0.056054687
201,10,1.1,4,93.28358209,4674,-9768,-1750,518,900,1512,-2265.645581,-8113,533.5661765,-838.0842516,471.850141,1106.519231,60,65.18,59.85,65.83,0,-0.0034375,-0.03,0.003007813
201,10,1.1,4,94.02985075,5360,-9420,-1316,189,1045,890,-2096,-8080,532,-876,507,1131,60.00229595,65.1821494,59.82229595,65.83,0.00229595,0.0021494,-0.02770405,0
201,10,1.1,4,94.7761194,6658,-8498,-1216,-313,978,41,-1788,-8300,536,-933,558,1156,60.04748219,65.23236719,59.86748219,65.83,0.045186241,0.05021779,0.045186241,0
201,10,1.1,4,95.52238806,7298,-7710,-1582,-592,795,-503,-1503.779974,-8333.584048,553.3839365,-998.4421701,593.4715764,1257.086656,60.06,65.28127214,59.86748219,65.84213108,0.01251781,0.048904946,7.11E-15,0.012131081
201,10,1.1,4,96.26865672,7702,-8188,-1944,-920,337,-1224,-1350,-8372,600,-1043,645,1386,60.06,65.3218217,59.82229595,65.90009974,0,0.040549562,-0.045186241,0.057968655
201,10,1.1,4,97.01492537,6818,-19612,-3322,-1071,-336,-1659,-1394,-9218,972,-1052,880,1468,60.08735599,65.37114797,59.82,65.93906329,0.027355994,0.049326277,-0.00229595,0.038963552
201,10,1.1,4,97.76119403,6372.99498,-18819.49603,-1472.962963,-872.6666667,-638.5932049,-2045.86238,-3322,-12490,1502,-1186,1185,1683,60.12,65.39895811,59.81932617,65.98807122,0.032644006,0.027810134,-0.000673828,0.049007936
201,10,1.1,4,98.50746269,6046.136406,-16853.21428,1960.962963,-504.3333333,-845.8646306,-2410.175379,320,-14314,2122,-1301,1092,1710,60.12,65.31386247,59.77391602,66.15581969,0,-0.085095636,-0.045410156,0.167748466
201,10,1.1,4,99.25373134,5416,-14330,3810,-306,-1015,-2778,1678,-11726,256,-1612,940,2051,60.12,65.20977187,59.76,66.2,0,-0.104090606,-0.013916016,0.04418031
201,10,1.1,4,100,-1035.562521,-9241.983632,2995.392933,-459.4552573,-1195.782312,-3247.88766,1030,-10928,-424,-1666,735,2429,60.12,65.11602539,59.76,66.2,0,-0.093746482,0,0
201,10,1.1,1,0,-7026,-5452,1296,-652,-1292,-3544,533.243669,-11794.44444,34.17667273,-1806.15365,734.3859927,2726.528207,60.15,65.0747372,59.74961327,66.2,0.03,-0.041288182,-0.010386729,0
201,10,1.1,1,0.793650794,-6603.923806,-7229,-2134.392933,-722.0447427,-75.21173722,-3558.891713,107.1075963,-13403.55556,892.3533455,-2001.83433,734.0818853,2990.702194,60.18,65.03415651,59.72473031,66.2,0.03,-0.040580691,-0.024882964,0
201,10,1.1,1,1.587301587,-5348,-9006,-4680,-753,1274,-3576,-252,-14270,1376,-2139,734,3268,60.18,64.94670072,59.70351109,66.2,0,-0.087455794,-0.021219214,0
201,10,1.1,1,2.380952381,2600,-6102,-3462,-612,1436,-4403,-506.2326691,-13419,1406.551243,-2195.149194,736.3720472,3625.287675,60.18,64.85556008,59.7,66.2,0,-0.091140637,-0.003511093,0
201,10,1.1,1,3.174603175,10932,-5564,876,-687,677,-5164,-794,-12568,1418,-2233,744,3906,60.18,64.77246536,59.7,66.2,0,-0.083094716,0,0
201,10,1.1,1,3.968253968,8032.962963,-6626.962963,888.2810294,-694.6466862,255.6675022,-4763.284458,-1412,-13602,1354,-2260,833,4008,60.18,64.72527333,59.7,66.275,0,-0.047192039,0,0.075
201,10,1.1,1,4.761904762,2649.037037,-8601.037037,894.3627369,-698.7677875,-56.77736003,-3988.346693,-588,-14868,1652,-2271,802,4155,60.18,64.67623892,59.69742188,66.35,0,-0.049034407,-0.002578125,0.075
201,10,1.1,1,5.555555556,-250,-9664,896,-700,-179,-3480,-438.3060654,-14636.39691,1756.436416,-2259.655113,848.3048452,4389.901028,60.18,64.57970745,59.649375,66.35,0,-0.096531472,-0.048046875,0
201,10,1.1,1,6.349206349,1660,-7080,-1494,-517,83,-3373,-330,-14154,1798,-2226,936,4624,60.19555556,64.51738377,59.64,66.32925926,0.015555556,-0.06232368,-0.009375,-0.020740741
201,10,1.1,1,7.142857143,2726.73167,-7311.840611,-684.9028706,-342.9650214,-12.5,-3000.937376,-132,-13412,1750,-2017,1038,4769,60.23794239,64.48132884,59.64,66.27274348,0.042386831,-0.036054928,0,-0.056515775
201,10,1.1,1,7.936507937,3214,-7696,312,-206,-108,-2587,-1781.330077,-12531.31818,1501.490313,-1952.055372,1294.595894,5151.43,60.24,64.48,59.64,66.31,0.002057613,-0.001328839,0,0.037256516
201,10,1.1,1,8.73015873,3002,-7998,568,-133,-107,-2402,-4136,-12012,1290,-1927,1637,5437,60.24,64.47699219,59.63742188,66.35,0,-0.003007813,-0.002578125,0.04
201,10,1.1,1,9.523809524,2928.944696,-7878,380,-70.89512489,-74.50350803,-2204.275806,-5583.265048,-12754,1425.918751,-2005.037037,1969.935922,5391.63585,60.24,64.4209375,59.589375,66.35,0,-0.056054688,-0.048046875,0
201,10,1.1,1,10.31746032,2900,-7758,192,-17,-41,-1988,-6793.18808,-14132,1757.837502,-2149.962963,2316.935485,5261.382811,60.24,64.4243619,59.58,66.37000407,0,0.003424397,-0.009375,0.020004071
201,10,1.1,1,11.11111111,2973,-7863.10596,493,37.76368159,-38.05714286,-1718.518487,-7300,-14874,2172,-2228,2648,5055,60.24,64.47565439,59.58,66.41930185,0,0.051292489,0,0.049297781
201,10,1.1,2,11.9047619,3046,-7994,794,68,-37,-1464,-6392,-14532,2768,-2030,2946,4383,60.24,64.52629147,59.58,66.42,0,0.050637085,0,0.000698148
201,10,1.1,2,12.6984127,2867,-8039.89404,772.2857143,61,-39,-1297.205026,-2316.957618,-12006.50056,3762.968505,-1788.98038,3370.848433,3431.268912,60.24,64.55,59.58,66.42452955,0,0.023708528,0,0.004529548
201,10,1.1,2,13.49206349,2688,-8060,718,54,-41,-1137,1074,-8642,4418,-1561,3637,2664,60.24,64.55,59.58,66.52418157,0,0,0,0.09965202
201,10,1.1,2,14.28571429,2946,-8026,566,63,-5,-923,-319.3763582,-6788.206884,2392.652572,-1424.582783,2681.710365,2396.081096,60.24,64.55,59.58,66.59499963,0,0,0,0.070818065
201,10,1.1,2,15.07936508,3116.009025,-8034.623779,787,54.25862069,-24.91556291,-684.8170197,-1988,-5024,-410,-1251,1071,2184,60.24,64.55,59.58,66.63545389,0,0,0,0.040454257
201,10,1.1,2,15.87301587,3198,-8056,1008,39,-51,-462,-2352,-2702,-1620,-675,-263,1898,60.24,64.55,59.5444043,66.68172475,0,0,-0.035595703,0.046270862
201,10,1.1,2,16.66666667,3032,-8114,1004,25,-60,-295,-1986,-1208,-1836,-374,-788,1575,60.24,64.56037037,59.52,66.74169223,0,0.01037037,-0.024404297,0.059967478
201,10,1.1,2,17.46031746,2839.145706,-8057.4375,972.9642857,21.43382353,-43.125,-174.7604319,-1921.12833,-1378.301768,-1725.481481,-70.88073792,-774.4636078,1084.85281,60.24,64.66359396,59.52,66.83307329,0,0.103223594,0,0.091381057
201,10,1.1,2,18.25396825,2628.018405,-7933,912.8571429,18.94117647,-6,-76.89507931,-1884.705248,-1810.654548,-1449.185185,234.1601919,-739.8613229,451.8329344,60.24,64.69,59.52,66.89484369,0,0.026406036,0,0.061770403
201,10,1.1,2,19.04761905,2457.881902,-7808.5625,854.3214286,17.47794118,31.125,24.91781289,-1863.755815,-2387.229549,-1090,539.54576,-693.2034823,-260.9609556,60.24,64.69,59.52,66.93556416,0,0,0,0.040720472
201,10,1.1,2,19.84126984,2388,-7752,828,17,48,157,-1845.305089,-2990.197985,-730.8148148,843.6989371,-643.5004235,-990.4301889,60.24,64.61383065,59.55264401,66.97846181,0,-0.076169347,0.032644006,0.04289765
201,10,1.1,2,20.63492063,2712,-7890,946,19,-55,366,-1816.378131,-3501.731064,-454.5185185,1145.042694,-599.7624836,-1673.476094,60.23742188,64.55,59.57742188,67.03359033,-0.002578125,-0.063830653,0.024777869,0.055128522
201,10,1.1,2,21.42857143,2722,-7848,1296,-5,-54,498,-1764,-3804,-344,1442,-571,-2247,60.189375,64.55,59.529375,67.12574349,-0.048046875,0,-0.048046875,0.092153159
201,10,1.1,2,22.22222222,2078.180577,-7867.26559,1147.14903,-22.36024845,-66.55434783,583.1957295,-1572.892826,-3932.177665,-347.7922078,1733.416912,-552.9321726,-2688.271589,60.18,64.56635131,59.52,67.25032421,-0.009375,0.01635131,-0.009375,0.124580717
201,10,1.1,2,23.01587302,1428,-7908,914,-31,-84,624,-1416,-4022,-360,2019,-544,-3108,60.18,64.62,59.52,67.4,0,0.05364869,0,0.149675789
201,10,1.1,2,23.80952381,1420.659367,-7992.935248,723.4387611,-30.22222222,-93.79227053,593.6401898,-1464,-4090,-504,2297,-704,-3584,60.14502058,64.66895234,59.52,67.53421978,-0.034979424,0.048952344,0,0.134219782
201,10,1.1,2,24.6031746,1417.800272,-8105.689846,546.163825,-28.77777778,-101.7294686,527.0581573,-1442.458115,-4338.553659,-686.6744186,2485.598752,-845.7915017,-3954.808121,60.12,64.68823833,59.52,67.65025599,-0.025020576,0.01928599,0,0.116036207
201,10,1.1,2,25.3968254,1410,-8162,468,-28,-105,461,-1386,-4734,-824,2632,-949,-4270,60.12,64.64375501,59.52,67.7368766,0,-0.044483325,0,0.086620615
201,10,1.1,2,26.19047619,1296,-7808,650,-41,-100,408,-1196,-5226,-864,2743,-995,-4535,60.12,64.57348701,59.52,67.88890536,0,-0.070268,0,0.152028756
201,10,1.1,2,26.98412698,1073.215366,-8031,623,-38.5,-101.4561856,343.9782742,-936,-6104,-790,2890,-1029,-4896,60.12,64.48612709,59.52,68.0806794,0,-0.087359915,0,0.191774038
201,10,1.1,2,27.77777778,856,-8254,596,-36,-105,267,-920,-6642,-756,2993,-1072,-5120,60.0844043,64.44127551,59.52,68.15090318,-0.035595703,-0.044851585,0,0.070223777
201,10,1.1,2,28.57142857,754,-8080,866,-58,-114,164,-1158,-7078,-792,3144,-1146,-5430,60.06,64.38926238,59.52494606,68.17,-0.024404297,-0.052013129,0.004946061,0.019096825
201,10,1.1,2,29.36507937,550.8690852,-7871.412189,800.6103979,-75.20588235,-130.1413043,42.88875994,-1386,-7202,-810,3235,-1205,-5616,60.06,64.29834722,59.5715978,68.17,0,-0.090915158,0.04665174,0
201,10,1.1,2,30.15873016,410,-7748,692,-84,-141,-59,-1670.040991,-7063,-915.0622776,3315.151514,-1268.657407,-5829.182462,60.04783788,64.23620395,59.58,68.07671046,-0.012162122,-0.062143274,0.008402198,-0.093289545
201,10,1.1,2,30.95238095,668,-8224,606,-70,-134,-111,-1930,-6924,-1006,3393,-1305,-6049,60.00382054,64.20039419,59.58,67.79563058,-0.044017341,-0.035809756,0,-0.281079873
201,10,1.1,2,31.74603175,621.106383,-7779,737.8604651,-80.43560606,-152,-220.6115328,-2092,-6978,-920,3475,-1304,-6257,59.95813817,64.2,59.60452148,67.69331357,-0.045682363,-0.000394192,0.024521484,-0.102317013
201,10,1.1,2,32.53968254,552,-7334,930,-99,-170,-357,-2306,-7138,-860,3514,-1260,-6376,59.94,64.19354004,59.6586361,67.5862987,-0.018138174,-0.006459961,0.054114612,-0.10701487
201,10,1.1,2,33.33333333,504.893617,-7767,1049.282392,-114.9674947,-135.5,-485.8838616,-2507.817531,-7398.402897,-793.9361702,3530.744612,-1169.986988,-6508.255435,59.94,64.13645996,59.74106892,67.41603888,0,-0.057080078,0.082432822,-0.170259817
201,10,1.1,2,34.12698413,480,-8200,1122,-136,-101,-605,-2710.004472,-7740.514065,-723.2765957,3543.689655,-1044.571767,-6650.282609,59.94,64.15352538,59.79167934,67.40161239,0,0.017065416,0.050610418,-0.014426497
201,10,1.1,2,34.92063492,729.8779904,-7949,1144.857143,-176.8243874,-136.1558045,-691.0165703,-2865.689177,-8109.368201,-666.9787234,3552.039871,-933.1206627,-6763.668478,59.94,64.19937586,59.82601274,67.40911615,0,0.04585048,0.034333401,0.00750376
201,10,1.1,2,35.71428571,1076,-7698,1154,-228,-180,-784,-2928,-8450,-644,3555,-885,-6810,59.9336003,64.2,59.85410454,67.42200245,-0.006399703,0.000624143,0.028091804,0.012886306
201,10,1.1,2,36.50793651,1226,-7982,680,-276,-192,-942,-2798.32959,-8723.090481,-780.3944724,3513.339891,-955.1226294,-6784.640722,59.91507467,64.2,59.8832978,67.43945406,-0.018525627,0,0.029193262,0.01745161
201,10,1.1,2,37.3015873,1200,-8312,780,-291,-177,-1024,-2654,-9038,-1064,3426,-1126,-6717,59.89031221,64.2,59.92093558,67.46065373,-0.02476246,0,0.037637776,0.021199673
201,10,1.1,2,38.0952381,1732,-7506,1272.258427,-511.8923841,-294.5,-1046.359618,-2636,-9572,-1498,3289,-1562,-6472,59.85503591,64.2,59.98293989,67.49388474,-0.035276301,0,0.062004308,0.033231009
201,10,1.1,2,38.88888889,2264,-6700,1688,-720,-412,-1069,-3252.634272,-10118.18571,-1649.67917,3131.695057,-1973.357372,-6186.422266,59.82,64.2,60.06,67.55,-0.03503591,0,0.077060111,0.056115256
201,10,1.1,2,39.68253968,382,-8348,1408,-509,-334,-1156,-4096,-10512,-1710,2957,-2325,-5869,59.82,64.2,60.09976526,67.61171875,0,0,0.039765264,0.06171875
201,10,1.1,2,40.47619048,690.8387961,-8543.095343,1131.291572,-567.2781195,-345.1831797,-1290.204964,-4444,-10648,-1646,2757,-2569,-5510,59.81487089,64.2,60.13367928,67.63,-0.005129112,0,0.033914014,0.01828125
201,10,1.1,2,41.26984127,1168,-8606,978,-655,-368,-1393,-4990.381596,-10470,-1677.53139,2472.945025,-2750.086957,-4994.205654,59.77612218,64.2,60.16632072,67.63,-0.038748705,0,0.032641443,0
201,10,1.1,2,42.06349206,1470,-8020,1380,-706,-401,-1416,-5760,-10292,-1744,2118,-2841,-4343,59.73273401,64.22214844,60.20215078,67.67746094,-0.043388169,0.022148437,0.035830062,0.047460938
201,10,1.1,2,42.85714286,1361,-8184.113419,1114,-809.1517927,-436.0699421,-1493.61487,-6988,-10352,-1850,1666,-2754,-3500,59.7,64.27,60.24,67.78,-0.032734014,0.047851563,0.037849216,0.102539063
201,10,1.1,2,43.65079365,1252,-8560,848,-881,-494,-1559,-7686.160668,-10341.392,-1772.624,1312.878776,-2501.498791,-2795.712807,59.73785874,64.18166294,60.28402609,67.63487482,0.037858742,-0.088337065,0.044026091,-0.145125178
201,10,1.1,2,44.44444444,2345,-9240.469425,1146.208381,-876.387931,-928.9022801,-1563.157211,-8185.482301,-10316.096,-1588.112,1009.857881,-2076.07614,-2181.90773,59.75612533,64.14937988,60.29446289,67.58506836,0.018266589,-0.032283052,0.0104368,-0.049806463
201,10,1.1,2,45.23809524,3438,-10524,1570,-871,-1322,-1568,-8617.123599,-10285.904,-1367.888,723.5975982,-1609.304093,-1573.34625,59.71274102,64.32062012,60.24553711,67.89493164,-0.043384312,0.171240234,-0.048925781,0.309863281
201,10,1.1,2,46.03174603,-1838,-13974,1772,-870,-932,-1761,-9112.243265,-10260.608,-1183.376,420.7582103,-1232.754698,-884.7898466,59.67503237,64.32347717,60.24,67.78977203,-0.037708651,0.002857052,-0.005537109,-0.105159607
201,10,1.1,2,46.82539683,-2038,-11978,182,-981,-512,-2186,-9802,-10250,-1106,68,-1078,-31,59.64,64.27,60.24,67.55,-0.035032368,-0.053477169,0,-0.239772033
201,10,1.1,2,47.61904762,-279,-10547.07797,254,-1014.965727,-544.5769231,-2185,-10994,-12738,-1248,-383,-1119,1253,59.59615713,64.1723543,60.27785874,67.55,-0.043842866,-0.097645702,0.037858742,0
201,10,1.1,2,48.41269841,1480,-9794,326,-1049,-624,-2184,-11804.81787,-9401.607612,-1961.504401,-806.488296,-1039.45723,2416.114031,59.58,64.13,60.3,67.52451619,-0.016157134,-0.042354298,0.022141258,-0.025483807
201,10,1.1,2,49.20634921,-156,-9734,154,-1161,-827,-2305,-12428,-5950,-2566,-1037,-856,3214,59.58,64.13,60.3,67.28214829,0,0,0,-0.2423679
201,10,1.1,2,50,-250,-11110,118,-1149,-760,-2628,-12886,-5818,-2236,-941,-468,3484,59.57341746,64.13,60.27785874,67.19760902,-0.006582536,0,-0.022141258,-0.08453927
201,10,1.1,2,50.79365079,-226,-12084.78126,897,-1182.305648,-683.5133655,-2818.787282,-11794.87772,-6170.45004,-2364,-962.6773764,61.86522939,3378.563184,59.55,64.13,60.24,67.17,-0.023417464,0,-0.037858742,-0.027609023
201,10,1.1,2,51.58730159,-202,-12592,1676,-1249,-639,-3012,-8942,-7020,-2492,-1032,679,3114,59.52658254,64.13,60.24,67.17,-0.023417464,0,0,0
201,10,1.1,3,52.38095238,-608.1744525,-12625.84123,1645.578125,-1359.857721,-646.0909091,-3361.215076,566,-9106,-1102,-1797,1358,2363,59.52,64.13,60.24553711,67.16468322,-0.006582536,0,0.005537109,-0.005316781
201,10,1.1,3,53.17460317,-1072,-12656,1580,-1450,-663,-3751,5413.066832,-8007.217834,-2696,-1996.279058,572,3041.948122,59.52,64.13,60.29446289,67.10633562,0,0,0.048925781,-0.058347603
201,10,1.1,3,53.96825397,-1171.986159,-12826.93222,1432.083333,-1471.894752,-700.0597124,-4078.99366,7564,-6596,-4290,-2070,-214,3951,59.49785874,64.13,60.3,67.06295922,-0.022141258,0,0.005537109,-0.043376392
201,10,1.1,3,54.76190476,-1236.881968,-13129.42954,1231.041667,-1486.002931,-772.0285157,-4384.875589,-636,-6023.782166,-2155.515775,-1724.5,39.33881952,4390.051878,59.46,64.13,60.3,67.02,-0.037858742,0,0,-0.042959225
201,10,1.1,3,55.55555556,-1260,-13410,1130,-1491,-879,-4653,-8836,-5764,208,-1379,388,4599,59.50101563,64.16759766,60.36907895,66.93135514,0.041015625,0.037597656,0.069078947,-0.088644864
201,10,1.1,3,56.34920635,-476,-13660.61076,1315,-1362,-1254.126005,-4890.241667,-6607.398112,-6179.910314,577.5157748,-1556,575.1611805,4034.486381,59.52,64.22078125,60.44337171,66.83002323,0.018984375,0.053183594,0.074292763,-0.101331911
201,10,1.1,3,57.14285714,308,-13802,1500,-1233,-1567,-5072,-3652,-6812,718,-1733,667,3351,59.52,64.26794922,60.48820107,66.73369325,0,0.047167969,0.044829359,-0.096329974
201,10,1.1,3,57.93650794,64,-12342,1262,-1376,-1549,-5175,-2278.601888,-7283.685431,-1575,-1514.905137,574.3956591,3166.36497,59.49497942,64.24080933,60.49,66.68035375,-0.025020576,-0.027139891,0.001798931,-0.053339498
201,10,1.1,3,58.73015873,1358,-11984,-148,-1286,-1642,-5720,-1632,-7548,-3868,-1131,388,3057,59.46,64.2,60.49,66.64,-0.034979424,-0.040809328,0,-0.040353753
201,10,1.1,3,59.52380952,3070,-12774,352,-1343,-1779,-6129,-1936,-7558,-3154,-770,129,2991,59.46,64.23790534,60.53101563,66.60119884,0,0.037905336,0.041015625,-0.038801163
201,10,1.1,3,60.31746032,4642.526157,-15315.91851,2074.400554,-1648.817059,-1774.5,-6006.999284,-3280.216671,-7618.652412,-1194.87061,-590.2286982,145.1326531,2820.167834,59.4684022,64.28972906,60.5415978,66.52397196,0.008402198,0.051823723,0.010582177,-0.077226872
201,10,1.1,3,61.11111111,5492,-17302,3504,-1925,-1770,-5746,-4396,-7700,282,-484,180,2554,59.51505394,64.3360798,60.49494606,66.3652987,0.04665174,0.04635074,-0.04665174,-0.158673265
201,10,1.1,4,61.9047619,4540.846851,-16311.94159,3574.040953,-1947.858075,-2082.950127,-5356.714193,-4350,-7750,280,-436,240,2173,59.4955957,64.34,60.49,66.35,-0.019458235,0.0039202,-0.004946061,-0.015298699
201,10,1.1,4,62.6984127,2524,-14040,3642,-1956,-2616,-4732,-3927.028131,-7736,-256.8973214,-307.9955156,144.9547739,1949.135393,59.46,64.3413963,60.49015266,66.35,-0.035595703,0.001396296,0.000152656,0
201,10,1.1,4,63.49206349,-750,-9314,4048,-1839,-3071,-3521,-3542,-7722,-792,-157,47,1748,59.46,64.43999186,60.50477712,66.35,0,0.098595563,0.014624466,0
201,10,1.1,4,64.28571429,-2436,-6206,3934,-1794,-3447,-2436,-3809,-7802.325,-489.8748222,-32.56687898,43.88733139,1487.571929,59.46,64.48,60.53039284,66.35,0,0.040008142,0.025615713,0
201,10,1.1,4,65.07936508,308,-6215,2237.92285,-1668.386184,-2476.146141,-2691,-4076,-7960,-14,35,41,1216,59.46,64.48,60.54868105,66.35,0,0,0.018288215,0
201,10,1.1,4,65.87301587,3052,-6224,-106,-1420,-725,-2946,-4019.496865,-8219.675,303.1169521,25.5,15.00475821,950.2662796,59.46,64.48,60.55,66.35,0,0,0.00131895,0
201,10,1.1,4,66.66666667,2050,-5202,-1340,-737,1043,-2274,-3958,-8402,614,16,-10,713,59.46059841,64.48,60.54940159,66.35106471,0.000598412,0,-0.000598412,0.001064708
201,10,1.1,4,67.46031746,-156,-3646,-258,-377,1926,-2037,-3952,-7670,968,55,-12,539,59.50285365,64.48,60.50714635,66.43494606,0.042255241,0,-0.042255241,0.083881354
201,10,1.1,4,68.25396825,-150,-4010,1298,-123,2344,-1143,-4162,-7768,902.4968321,46.28614458,-7.134765625,308.2794176,59.52,64.48575741,60.49,66.51195019,0.017146346,0.005757405,-0.017146346,0.077004133
201,10,1.1,4,69.04761905,128.8128385,-4266.515841,1310.253896,102.8998673,2310.558753,-378.0893059,-4372,-7866,774,33,4,74,59.52,64.53279424,60.49,66.55679417,0,0.047036835,0,0.044843979
201,10,1.1,4,69.84126984,635.9619748,-4473.146809,1316.34917,316.6043558,2227.117506,336.6170484,-4171.663443,-7855.111111,569.190817,22.97278001,37.31365741,-129.8348066,59.52,64.60970967,60.49,66.59846837,0,0.076915428,0,0.041674198
201,10,1.1,4,70.63492063,908,-4558,1318,539,2119,1122,-3716.215775,-7834.888889,320.8176307,13.93083445,86.04571759,-316.541395,59.51940159,64.69567681,60.49,66.64666009,-0.000598412,0.085967137,0,0.048191715
201,10,1.1,4,71.42857143,896,-4420,420,783,1946,2079,-3224,-7824,200,10,111,-458,59.47714635,64.74769729,60.49,66.75512228,-0.042255241,0.052020485,0,0.108462196
201,10,1.1,4,72.22222222,1169.752579,-4214.495199,212.346594,965.457135,1878.344665,2741.909322,-2645.467417,-7895.987952,256,16.77443609,91.7721519,-567.3653396,59.46229595,64.76,60.49,66.79,-0.014850397,0.012302709,0,0.034877717
201,10,1.1,4,73.01587302,1691.505159,-3992.136489,100.7219236,1122.058414,1835.153976,3288.469797,-2222,-8024,312,27,55,-622,59.48214126,64.76,60.49,66.79,0.019845308,0,0,0
201,10,1.1,4,73.80952381,2012,-3888,-42,1275,1773,3804,-2142,-8148,60,33,11,-602,59.50748219,64.76,60.43578875,66.82336077,0.025340932,0,-0.054211248,0.033360768
201,10,1.1,4,74.6031746,2057.546472,-3939.785714,-314.0991227,1423.329288,1656.443042,4294.973582,-1942,-7764,594,75,-20,-595,59.52,64.76,60.36,66.87,0.01251781,0,-0.075788752,0.046639232
201,10,1.1,4,75.3968254,2094,-4088,-588,1583,1470,4791,-1708.200894,-7816.857143,586.6527333,68.98572066,-2.98227893,-566.6072403,59.52,64.88817383,60.36,66.8153125,0,0.128173828,0,-0.0546875
201,10,1.1,4,76.19047619,2160,-4838,-758,1794,1098,5372,-1457.092472,-7929.714286,565.5276889,52.7492191,32.47988659,-509.9732108,59.52,64.99143062,60.35335311,66.8025,0,0.103256794,-0.006646892,-0.0128125
201,10,1.1,4,76.98412698,1996.432346,-5336.028674,-692.1481481,1944.356504,767.2680037,5810.109454,-1218,-8034,532,29,63,-435,59.52,65.02970471,60.30814801,66.8665625,0,0.038274085,-0.045205096,0.0640625
201,10,1.1,4,77.77777778,1671.531359,-5728.681004,-569.8518519,2068.594972,457.5897684,6189.926111,-1006,-8104,422,-27,80,-307,59.52,65.09134093,60.264488,66.87,0,0.06163622,-0.04366001,0.0034375
201,10,1.1,4,78.57142857,1434,-5888,-504,2167,157,6583,-1028,-7752,686,-41,50,-180,59.52,65.1959695,60.24,66.86958178,0,0.104628576,-0.024488002,-0.000418217
201,10,1.1,4,79.36507937,1354,-5884,-690,2237,-134,7022,-1262,-7350,660,-87,62,15,59.52,65.5238846,60.24,66.82792358,0,0.327915098,0,-0.041658202
201,10,1.1,4,80.15873016,1449.063506,-6033.826923,-1091.173283,2315.810311,-315.8718488,7369.509498,-1115,-7626,843,-162.5262509,99.84348093,106.6037829,59.52777248,65.58359396,60.22868313,66.68563485,0.007772479,0.059709363,-0.011316872,-0.142288732
201,10,1.1,4,80.95238095,1606,-6220,-1392,2397,-409,7645,-968,-7902,1026,-229,148,182,59.56819412,65.48037037,60.18444444,66.37917769,0.040421644,-0.103223594,-0.044238683,-0.306457158
201,10,1.1,4,81.74603175,1728,-6270,-1412,2475,-419,7832,-1222,-7875,882.9404553,-257.3308815,192.0709677,278.99381,59.61223042,65.47,60.18,66.35,0.044036295,-0.01037037,-0.004444444,-0.029177691
201,10,1.1,4,82.53968254,1709.603865,-6744.744697,-1290,2532.860428,-379.6991389,8047.936988,-1476,-7848,588,-278,217,377,59.64,65.46946252,60.18,66.34910156,0.027769581,-0.000537477,0,-0.000898437
201,10,1.1,4,83.33333333,1660,-7434,-1168,2579,-282,8219,-904,-8296,148,-297,213,465,59.64,65.42626446,60.18,66.28855469,0,-0.04319806,0,-0.060546875
201,10,1.1,4,84.12698413,1264.396135,-8021.308357,-1536.382775,2622.094118,22.79240952,8311.521552,-1048,-8049,382.2562845,-307.7797909,198.5555556,578.987397,59.64,65.37482329,60.17183161,66.30129452,0,-0.051441172,-0.008168387,0.012739837
201,10,1.1,4,84.92063492,900,-8352,-1936,2645,510,8354,-1192,-7802,800,-322,187,695,59.64,65.33179756,60.12882008,66.41426013,0,-0.043025733,-0.043011529,0.112965601
201,10,1.1,4,85.71428571,1232.921546,-8293.545226,-1985.617225,2644.334213,1116.67884,8323.065508,-942,-7950,1208,-382,261,789,59.66735599,65.33,60.07415586,66.40695483,0.027355994,-0.001797558,-0.054664222,-0.0073053
201,10,1.1,4,86.50793651,1910,-8172,-2004,2642,1739,8246,-1285,-7989.084288,875,-438.5709494,254,915.1824151,59.7,65.32921387,60.00217865,66.36252404,0.032644006,-0.000786133,-0.071977217,-0.044430782
201,10,1.1,4,87.3015873,2880,-7986,-1436,2478,2192,8033,-1628,-8026,542,-499,247,1047,59.7,65.27623535,59.94845124,66.30164814,0,-0.052978516,-0.053727403,-0.060875905
201,10,1.1,4,88.0952381,3898,-9108,-1100,2361,2428,7879,-1567.192308,-8188.097297,681.0266272,-580.1668015,324.5,1158.014385,59.70751693,65.26,59.95251781,66.23234978,0.007516926,-0.016235352,0.004066568,-0.069298357
201,10,1.1,4,88.88888889,4836,-10494,-582,2162,2519,7607,-1442,-8320,934,-656,402,1265,59.75020272,65.26,59.99770405,66.13813117,0.042685799,0,0.045186241,-0.094218609
201,10,1.1,4,89.68253968,6049.115055,-10477.88527,-271.2683686,1946.426141,2393.922937,7257.867693,-1256,-8260,1196,-702,379,1376,59.82963504,65.26,59.97,66.04327858,0.079432312,0,-0.02770405,-0.094852589
201,10,1.1,4,90.47619048,7212,-10432,-126,1737,2161,6849,-1136,-8292,1008,-829,447,1519,59.88,65.26,59.94205761,65.96989209,0.050364964,0,-0.027942387,-0.073386493
201,10,1.1,4,91.26984127,8010,-10206,-456,1558,1903,6366,-1689.777778,-9272.394214,1125.289259,-913.9172741,671.9039434,1654.08436,59.88,65.26,59.98444444,65.93260944,0,0,0.042386831,-0.037282655
201,10,1.1,4,92.06349206,8938.310337,-10015.71973,-566.2092996,1334.993792,1541.619143,5642.951257,-2718.222222,-11255.41244,1415.022962,-983.9389254,988.4519717,1783.724275,59.885625,65.2709375,59.990625,65.89113206,0.005625,0.0109375,0.006180556,-0.041477373
201,10,1.1,4,92.85714286,9915.112374,-9831.47022,-632.8078985,1085.613278,1117.286957,4736.236671,-3272,-12966,1784,-1066,1149,1904,59.92976563,65.32699219,59.94257813,65.83962395,0.044140625,0.056054687,-0.048046875,-0.051508113
201,10,1.1,4,93.65079365,10758,-9576,-716,839,714,3762,1136,-13934,2346,-1182,828,2010,60.00036496,65.33,59.94,65.78566667,0.070599339,0.003007813,-0.002578125,-0.053957284
201,10,1.1,4,94.44444444,11315.90297,-8925.792232,-892.8892302,600.0448562,300.7036734,2736.393116,1080,-11422,846,-1417,663,2122,60.06979728,65.33,59.94229595,65.76267861,0.069432312,0,0.00229595,-0.022988059
201,10,1.1,4,95.23809524,11958,-8434,-1014,375,32,1603,-372,-10352,-750,-1568,636,2486,60.11248307,65.33,59.98748219,65.81539589,0.042685799,0,0.045186241,0.052717281
201,10,1.1,4,96.03174603,13853.87912,-12210,-926.4203545,135.0761905,-29.39504563,24.41126666,-486.076688,-10741.19926,-399.5555556,-1664.045384,667.3703704,2747.344664,60.12,65.34875975,59.98748219,65.83,0.007516926,0.018759753,-1.42E-14,0.014604112
201,10,1.1,4,96.82539683,15308,-15986,-642,-1,-53,-1023,-546.3716773,-11616.62075,381.5555556,-1742.187497,725.6296296,2969.16573,60.12,65.44897008,59.94229595,65.83,0,0.100210326,-0.045186241,0
201,10,1.1,4,97.61904762,12500,-1776,3046,164,63,-1094,-564,-12540,1188,-1847,757,3208,60.12,65.59287401,59.94,65.85423943,0,0.143903928,-0.00229595,0.024239432
201,10,1.1,4,98.41269841,12475.66477,-6396,1464,-207.9479905,-244.1885489,-2765.380796,566,-13402,1902,-2039,756,3496,60.12067383,65.69,59.9395459,65.91662595,0.000673828,0.097125992,-0.000454102,0.062386514
201,10,1.1,4,99.20634921,12454,-11016,-118,-612,-799,-4375,489.7777778,-14001.66154,2352.732044,-2139.060762,791,3807.76899,60.16608398,65.69,59.90277832,66.01033796,0.045410156,0,-0.036767578,0.093712016
201,10,1.1,4,100,3413.035405,-8737,1326,-646.7981946,-1504.811451,-4010,348.2222222,-14524.58266,2701.810466,-2212.234864,856,4131.821992,60.18,65.661381,59.85722168,66.075152,0.013916016,-0.028618995,-0.045556641,0.064814037
201,10,1.1,1,0,-5836,-6458,2770,-682,-1963,-3645,272,-15308,2842,-2311,891,4451,60.18,65.54673361,59.8204541,66.11557181,0,-0.114647399,-0.036767578,0.040419807
201,10,1.1,1,0.847457627,-6188.506555,-7203,-1099,-1154.753815,-985.073229,-3699.200366,690,-17138,2664,-2496,604,4757,60.18,65.49969837,59.82,66.15879651,0,-0.047035238,-0.000454102,0.043224702
201,10,1.1,1,1.694915254,-6310,-7948,-4968,-1595,387,-3862,551.2231847,-16812.8041,2499.7102,-2403.96875,702.0328836,5086.161797,60.18,65.46176471,59.8184368,66.21529748,0,-0.037933663,-0.0015632,0.056500972
201,10,1.1,1,2.542372881,2672,-5566,-3602,-1204,1011,-4956,153.7618259,-16019.64428,2343.657771,-2201.5,948.5876897,5429.287865,60.18,65.42058824,59.78131081,66.32507721,0,-0.041176471,-0.037125992,0.109779733
201,10,1.1,1,3.389830508,3628.898874,-5660.918857,-2488.965792,-1230.444444,523.8518519,-4578,-474.0804458,-15032.16231,2180.776457,-1999.03125,1272.348651,5802.020001,60.18,65.37954264,59.74246512,66.33330959,0,-0.041045596,-0.038845688,0.008232374
201,10,1.1,1,4.237288136,4146.560548,-5907.837714,-1542.149562,-1279.555556,-380.8518519,-3876,-1304,-14124,1996,-1907,1602,6220,60.18,65.33843161,59.70722709,66.27306127,0,-0.041111033,-0.035238028,-0.060248321
201,10,1.1,1,5.084745763,4302,-6250,-1142,-1306,-868,-3498,-3426,-13330,1764,-1961,1969,6742,60.21,65.29584589,59.66272505,66.31,0.03,-0.04258572,-0.044502045,0.036938734
201,10,1.1,1,5.93220339,2656,-6988.399224,-2385,-1195.440245,-520.6238938,-3511,-5420,-15686,2848,-2178,2802,7080,60.24,65.25074254,59.64,66.35,0.03,-0.04510335,-0.022725046,0.04
201,10,1.1,1,6.779661017,1010,-7892,-3628,-944,-75,-3524,-6639.958872,-18473.79453,3187.504969,-2355.71792,3099.706346,6768.086501,60.24,65.20263752,59.64,66.35,0,-0.048105016,0,0
201,10,1.1,1,7.627118644,2958,-8520,-1422,-436,65,-3231,-7214,-20116,3526,-2448,3358,6098,60.25555556,65.13496661,59.64,66.35,0.015555556,-0.067670909,0,0
201,10,1.1,2,8.474576271,3220.701748,-8442.761953,-543.9255826,-326.8583826,6.666666667,-2845.285472,-4197.869321,-16993.42229,4882.09704,-2251.147826,3969.637046,4938.04693,60.29794239,65.0524049,59.64,66.35,0.042386831,-0.08256171,0,0
201,10,1.1,2,9.322033898,3339.565819,-8242.85724,46.14831981,-270.066155,-101.6666667,-2418.272493,572,-11816,6340,-1909,4400,3450,60.3,65.00261115,59.61,66.35,0.002057613,-0.049793748,-0.03,0
201,10,1.1,2,10.16949153,3544,-7968,262,-190,-160,-2066,3822,-7738,6886,-1599,3573,2036,60.3,64.96122128,59.58,66.3465625,0,-0.041389871,-0.03,-0.0034375
201,10,1.1,2,11.01694915,4154,-7442,-600,-22,-9,-1837,851,-6124.546381,3335.304599,-1287.256705,1863.055908,2198,60.3,64.91720463,59.58,66.2825,0,-0.044016656,0,-0.0640625
201,10,1.1,2,11.86440678,5026,-7826,-230,52,1,-1556,-2120,-4766,-688,-939,89,2360,60.3,64.8749774,59.58,66.28684348,0,-0.042227227,0,0.004343476
201,10,1.1,2,12.71186441,4234,-8074,984,55,-92,-1047,-1683,-2077.163627,-1464.304599,-462.1226816,-1136.270212,2035.918866,60.3,64.83411067,59.58,66.34531149,0,-0.040866733,0,0.05846801
201,10,1.1,2,13.55932203,3268,-8224,1226,24,-104,-829,-1246,-282,-1768,24,-1758,1422,60.3,64.79294118,59.54735599,66.38424862,0,-0.041169491,-0.032644006,0.03893713
201,10,1.1,2,14.40677966,3010,-8696,850,-9,-35,-511,-1364.976,-462.7530443,-1567.904,429.4925292,-1705.444422,708.9155752,60.3,64.75090983,59.52,66.43448291,0,-0.042031345,-0.027355994,0.050234295
201,10,1.1,2,15.25423729,2986.712228,-8487.555556,816.8643285,-31.61050943,-45.37037037,-256.4849759,-1648.688,-920.1791329,-1090.752,816.8389565,-1572.533265,-190.8027195,60.3,64.70032974,59.52,66.54453417,0,-0.050580094,0,0.110051255
201,10,1.1,2,16.10169492,2977.661744,-8100.444444,799.209942,-49.63858805,-64.62962963,-34.8677753,-1987.312,-1527.028699,-521.248,1172.639119,-1396.399897,-1156.878802,60.29606323,64.69269766,59.53391602,66.53520996,-0.003936768,-0.007632074,0.013916016,-0.009324206
201,10,1.1,2,16.94915254,2956,-7892,794,-57,-75,140,-2271.024,-2156.052177,-44.096,1483.492855,-1214.177686,-2069.036589,60.27280884,64.71098338,59.57932617,66.42168457,-0.023254395,0.018285712,0.045410156,-0.113525391
201,10,1.1,2,17.79661017,2487.770777,-8187,843.8026316,-31,-49.5,253.7565066,-2390,-2680,156,1736,-1063,-2807,60.24735718,64.73913272,59.58,66.52742227,-0.02545166,0.028149341,0.000673828,0.105737704
201,10,1.1,2,18.6440678,2038,-8482,954,-5,-24,369,-2104,-3082,-214,1914,-948,-3326,60.24444444,64.77117505,59.58,66.66862439,-0.002912733,0.032042338,0,0.141202114
201,10,1.1,2,19.49152542,2460,-7982,1158,-58,-154,568,-2010.600522,-3537.350262,-774.2231788,2157.302203,-950.6235632,-3798.321988,60.28868313,64.81968099,59.58,66.74581165,0.044238683,0.048505939,0,0.077187259
201,10,1.1,2,20.33898305,2329.169817,-7999.056,1145.936,-73.39642685,-150.464,561.7576325,-1966,-3858,-1132,2446,-959,-4255,60.3,64.82114807,59.58,66.85423799,0.011316872,0.001467078,0,0.108426346
201,10,1.1,2,21.18644068,2008.22945,-8039.728,1117.168,-82.06338651,-142.032,544.6328976,-1952,-3940,-684,2779,-1050,-4715,60.3,64.76682712,59.58,67.02950244,0,-0.054320956,0,0.175264441
201,10,1.1,2,22.03389831,1604.504175,-8088.272,1082.832,-88.13213275,-131.968,519.0293464,-1922,-3976,-500,2899,-1040,-5044,60.3,64.59396228,59.58,67.18833124,0,-0.172864833,0,0.158828809
201,10,1.1,2,22.88135593,1225.319266,-8128.944,1054.064,-95.73391932,-123.536,487.3505301,-1796,-4364,-582,3024,-1034,-5544,60.29865234,64.48157227,59.58,67.24,-0.001347656,-0.112390017,0,0.051668756
201,10,1.1,2,23.72881356,978,-8146,1042,-109,-120,452,-1770.099391,-4978.521327,-698.9179624,3126.189952,-994.826087,-5906.094908,60.26203125,64.52429688,59.58,67.24,-0.036621094,0.042724609,0,0
201,10,1.1,2,24.57627119,868,-7540,1258,-141,-125,395,-1754.938584,-5682.324946,-837.5553593,3218.560585,-931.9130435,-6210.10422,60.20783203,64.5875293,59.59898438,67.24,-0.054199219,0.063232422,0.018984375,0
201,10,1.1,2,25.42372881,927,-7859.909253,893,-157.5957447,-124.5,272.9004077,-1750,-6120,-970,3314,-899,-6485,60.18,64.62,59.64,67.24,-0.027832031,0.032470703,0.041015625,0
201,10,1.1,2,26.27118644,986,-8192,528,-165,-124,148,-1804.962963,-6261.212589,-1110.464088,3431.168349,-925.3703704,-6753.357592,60.18,64.57919067,59.64,67.33327846,0,-0.040809328,0,0.093278464
201,10,1.1,2,27.11864407,438,-8206,750,-156,-148,85,-1907.037037,-6352.109299,-1245.565378,3551.712359,-978.4074074,-6999.717606,60.17742188,64.55,59.64,67.4,-0.002578125,-0.029190672,0,0.066721536
201,10,1.1,2,27.96610169,48,-8452,728,-198,-181,-62,-1962,-6452,-1306,3633,-1019,-7196,60.129375,64.55,59.64,67.4,-0.048046875,0,0,0
201,10,1.1,2,28.81355932,-38,-8130,812,-212,-188,-112,-1862,-6588,-1270,3667,-1035,-7328,60.12,64.52162172,59.64,67.38378384,-0.009375,-0.028378284,0,-0.016216162
201,10,1.1,2,29.66101695,79.40863787,-8724,1317.089021,-266.2352324,-229.7544843,-275.4759554,-1944.35515,-6878.494465,-1157.31025,3689.884615,-1020.460859,-7486.632022,60.12,64.41891459,59.64,67.32509405,0,-0.102707129,0,-0.058689788
201,10,1.1,2,30.50847458,272,-9318,1756,-323,-266,-500,-2120,-7250,-990,3701,-988,-7646,60.09246074,64.3247708,59.6044043,67.27828214,-0.02753926,-0.094143789,-0.035595703,-0.046811905
201,10,1.1,2,31.3559322,391.1719882,-8832,934,-342.55,-247,-717.7209942,-2440.98454,-7624.103422,-754.2537313,3697,-903.5391414,-7793.07816,60.04919189,64.25458948,59.58289436,67.21468421,-0.043268845,-0.070181321,-0.021509935,-0.063597938
201,10,1.1,2,32.20338983,564,-8346,112,-357,-228,-899,-2794,-7976,-600,3693,-837,-7910,60.01403987,64.21538899,59.62059027,67.10642432,-0.035152025,-0.039200483,0.037695909,-0.10825989
201,10,1.1,2,33.05084746,1228,-8462,936,-372,-238,-994,-3002,-8242,-666,3695,-847,-7975,59.97398738,64.16965194,59.67636218,67.09,-0.04005249,-0.045737051,0.055771909,-0.016424317
201,10,1.1,2,33.89830508,990,-8492.632689,882.7674419,-436.1010638,-282.257732,-1003.924634,-3205.910193,-8521.622647,-894.6940174,3662.735789,-971.9765958,-7912.305577,59.94040301,64.13047018,59.75275925,67.09,-0.033584368,-0.039181763,0.076397069,0
201,10,1.1,2,34.74576271,752,-8504,768,-489,-319,-1014,-3406.281523,-8809.080266,-1293.594303,3578.795437,-1248.945957,-7747.814871,59.94,64.13,59.8301574,67.09620443,-0.000403012,-0.000470181,0.077398155,0.006204434
201,10,1.1,2,35.59322034,1106,-7768,572,-464,-282,-1123,-3662.512091,-9133.497753,-1724.697437,3462.457366,-1579.692339,-7516.91673,59.94553711,64.09216309,59.91593771,67.11619043,0.005537109,-0.037836914,0.085780302,0.019985998
201,10,1.1,2,36.44067797,1008,-7702,434,-464,-289,-1206,-4034,-9524,-2050,3333,-1866,-7255,59.99446289,63.75783691,59.99953319,67.14760967,0.048925781,-0.334326172,0.083595486,0.031419238
201,10,1.1,2,37.28813559,942.0384615,-8006.281427,848,-514.9002836,-317.2061072,-1261.288025,-4920,-10090,-2234,3151,-2084,-6866,59.9958171,63.73248594,60.07015997,67.18803318,0.001354206,-0.025350971,0.07062678,0.04042351
201,10,1.1,2,38.13559322,910,-8404,1262,-594,-352,-1314,-6246.604136,-10806.45124,-2576.032414,2796.305701,-2241.154714,-6223.370035,59.97691958,63.78737421,60.11703415,67.23503199,-0.018897516,0.054888271,0.046874183,0.046998812
201,10,1.1,2,38.98305085,926,-8540,994,-645,-372,-1384,-7564,-11518,-2890,2338,-2354,-5409,59.94579104,63.87414149,60.14423344,67.3349463,-0.031128542,0.086767275,0.027199285,0.099914305
201,10,1.1,2,39.83050847,1135.901629,-8381,1015.804545,-701.3815623,-390.3234516,-1485.421179,-8428.912421,-12209.40735,-3050.119101,1862.128838,-2434.1491,-4488.62748,59.90573287,63.97977593,60.16630536,67.49603603,-0.040058172,0.105634441,0.02207192,0.161089728
201,10,1.1,2,40.6779661,1384,-8222,1072,-765,-418,-1602,-9224,-12594,-3124,1338,-2473,-3458,59.86004646,64.0912657,60.17875766,67.61632427,-0.045686406,0.111489768,0.012452297,0.120288242
201,10,1.1,2,41.52542373,1440.60339,-8371.059388,1296.135274,-840.7314094,-514.6324896,-1721.237912,-10291.24077,-11825.03704,-2737.703704,726.8856945,-2334.224016,-2299.915187,59.81203322,64.19559896,60.18,67.63,-0.048013244,0.104333257,0.001242344,0.013675733
201,10,1.1,2,42.37288136,1518,-8836,1654,-928,-721,-1839,-11401.96465,-10396.96296,-2020.296296,74.17808155,-2021.670254,-1070.013631,59.76499453,64.27976386,60.18,67.63,-0.047038686,0.084164908,0,0
201,10,1.1,2,43.22033898,3732,-12946,2038,-1031,-1324,-1944,-12060,-9628,-1634,-484,-1691,29,59.7222318,64.33074858,60.13898438,67.47277344,-0.042762732,0.05098472,-0.041015625,-0.157226563
201,10,1.1,2,44.06779661,95,-13194.84609,1126.487887,-1094.990803,-1099.258621,-2177.150378,-12236,-9794,-2104,-883,-1380,891,59.68410799,64.33116598,60.12512911,67.41031917,-0.038123807,0.000417398,-0.013855263,-0.062454269
201,10,1.1,2,44.91525424,-3542,-13270,-118,-1150,-850,-2446,-12536.9055,-7965.703704,-2032.444444,-980.3308309,-1169.154206,1872.126707,59.64519488,64.27883402,60.16387782,67.5009319,-0.038913118,-0.052331962,0.038748705,0.090612735
201,10,1.1,2,45.76271186,-168,-12450,-628,-1210,-820,-2636,-13029.78089,-4570.296296,-1899.555556,-1032.438823,-993.5901849,2915.134732,59.64,64.27,60.20726599,67.69942581,-0.005194877,-0.008834019,0.043388169,0.198493908
201,10,1.1,2,46.61016949,-626,-11280,204,-1169,-1117,-2938,-13832,-2742,-1828,-1110,-783,3925,59.64,64.27,60.24,67.93,0,0,0.032734014,0.230574189
201,10,1.1,2,47.45762712,-761.6578156,-12206.59259,574.925893,-1173.01403,-1093.925926,-3237.698182,-16474,-6870,-2576,-1288,-473,4854,59.64,64.30388962,60.24,67.93,0,0.033889618,0,0
201,10,1.1,2,48.30508475,-846.6066856,-13927.40741,826.773331,-1186.139172,-1051.074074,-3538.045999,-11202.73651,-6708.740741,-671.4814815,-1583.052532,320.6748016,4230.222222,59.64,64.35292501,60.24,67.90231445,0,0.04903539,0,-0.027685547
201,10,1.1,3,49.15254237,-876,-14854,1112,-1210,-1028,-3849,-375.4730225,-6409.259259,2865.481481,-1954.886264,1360.559623,3071.777778,59.64,64.39707499,60.24,67.65768555,0,0.044149984,0,-0.244628906
201,10,1.1,3,50,-422,-14184,1512,-1398,-1105,-4181,8528,-6248,4770,-2298,1878,2448,59.61785874,64.4391289,60.24,67.63,-0.022141258,0.042053912,0,-0.027685547
201,10,1.1,3,50.84745763,-1541,-14947,1401,-1417.730722,-1041.5,-4527.543363,12896,-8420,-4154,-2567,593,3289,59.58,64.48,60.24,67.63,-0.037858742,0.040871096,0,0
201,10,1.1,3,51.69491525,-2660,-15710,1290,-1424,-978,-4845,7002.518519,-7214.962963,-3385.377585,-2169.296296,433.9110734,3910.419376,59.58,64.53115001,60.27785874,67.50308322,0,0.05115001,0.037858742,-0.126916783
201,10,1.1,3,52.54237288,-2127.783562,-15435.14494,1476,-1370.10219,-1153.134474,-5079.946508,-3942.518519,-4977.037037,-1642.088504,-1430.703704,346.6222033,4419.820799,59.57446289,64.53708008,60.3,67.37947328,-0.005537109,0.005930068,0.022141258,-0.123609937
201,10,1.1,3,53.38983051,-1334,-14818,1662,-1282,-1447,-5311,-9836,-3772,232,-1033,320,4631,59.52553711,64.42291992,60.3,67.33218756,-0.048925781,-0.114160156,0,-0.047285719
201,10,1.1,3,54.23728814,-962.9986398,-13174.85506,1328.639755,-1214.826876,-1745.089162,-5592.118545,-5528,-5286,2066,-1587,868,3996,59.52,64.43583147,60.3,67.2953096,-0.005537109,0.012911546,0,-0.036877958
201,10,1.1,3,55.08474576,-470,-11874,622,-1150,-1928,-5931,-4472.919565,-6832.890706,529.9348757,-1732.894698,718.7399356,3722.262278,59.52,64.48,60.3,67.24,0,0.044168532,0,-0.055309603
201,10,1.1,3,55.93220339,1552,-12616,-524,-1088,-1932,-6399,-3744,-7790,-1442,-1787,495,3520,59.52,64.43583147,60.3,67.10600785,0,-0.044168532,0,-0.133992146
201,10,1.1,3,56.77966102,4462.792206,-15310.00543,1693.952062,-1164.643782,-2030.627761,-6515.386319,-2510.493122,-7953.40176,-2239.934876,-1389.999793,344.162749,3314.476635,59.52,64.42035121,60.3,67.00130452,0,-0.015480261,0,-0.104703337
201,10,1.1,3,57.62711864,6292,-17936,3928,-1330,-2247,-6558,-1748,-8014,-2602,-880,247,3105,59.52,64.52594898,60.3,66.95670694,0,0.10559777,0,-0.04459758
201,10,1.1,3,58.47457627,6150,-18568,3946,-1613,-2674,-6041,-3302.100925,-7892,-1307.259901,-693.9844648,211.5973154,2874.709391,59.52,64.58944499,60.3,66.86922943,0,0.063496009,0,-0.087477509
201,10,1.1,4,59.3220339,2964.342105,-15901.87184,4470.880504,-1602,-3288.157557,-5118.210429,-4858,-7770,198,-579,197,2591,59.52,64.62,60.3,66.79,0,0.030555015,0,-0.079229428
201,10,1.1,4,60.16949153,-98,-11390,4980,-1591,-3674,-4072,-4860,-7884,468,-517,275,2144,59.47898438,64.62,60.34101563,66.79,-0.041015625,0,0.041015625,0
201,10,1.1,4,61.01694915,1339,-6667.128163,2524.899414,-1783,-3617.496415,-3013.964433,-4390,-8076,6,-471,245,1894,59.469375,64.6309375,60.36,66.79,-0.009609375,0.0109375,0.018984375,0
201,10,1.1,4,61.86440678,2776,-3790,68,-1975,-3445,-2407,-4035.176516,-8257.19891,-889.6343284,-329.8476781,182.8884058,1613.230522,59.51742188,64.68699219,60.36,66.79,0.048046875,0.056054687,0,0
201,10,1.1,4,62.71186441,2526,-7220,66,-1417,-2150,-3073,-3856,-8356,-1506,-154,109,1337,59.52,64.60242798,60.36,66.79,0.002578125,-0.084564204,0,0
201,10,1.1,4,63.55932203,2249.522979,-6189.515541,-470.8973214,-827.8069296,-307.2414437,-2760.02947,-3970.224537,-8246.696667,-1135.947917,-18.82714174,43.71527778,1105.80726,59.52,64.48,60.36,66.79,0,-0.122427984,0,0
201,10,1.1,4,64.40677966,1870,-4562,-1006,-335,1131,-2156,-4134,-8114,-526,86,-10,874,59.47898438,64.56253022,60.36,66.89253906,-0.041015625,0.082530224,0,0.102539063
201,10,1.1,4,65.25423729,813.5906572,-3179.484459,564,-48.17815733,1651.266542,-1411.904703,-4235.775463,-8073.303333,63.94791667,142.1185683,-50.58194444,602.6352163,59.4684022,64.63890417,60.36,66.93345098,-0.010582177,0.07637395,0,0.040911916
201,10,1.1,4,66.10169492,0,-2394,2134,199,1895,-562,-4288,-8056,414,197,-71,311,59.51505394,64.67524467,60.36,66.88496792,0.04665174,0.0363405,0,-0.048483057
201,10,1.1,4,66.94915254,484.829704,-2830.547213,2076.462264,490.2747595,1936.412407,199.6697011,-3566,-8110,366,296,-64,5,59.52,64.74970967,60.36,66.82744863,0.004946061,0.074464995,0,-0.057519291
201,10,1.1,4,67.79661017,1038,-3460,1906,780,1968,1019,-3424.99437,-8150.711538,400.3079268,294.0487205,-51.775,-230.8349672,59.52,64.83544884,60.36015266,66.79096682,0,0.08573917,0.000152656,-0.036481807
201,10,1.1,4,68.6440678,1124,-3776,856,1044,2029,2052,-3362.263561,-8188.076923,488.4878049,288.6299213,-35.8,-444.0024693,59.52,64.87735331,60.37477712,66.88358844,0,0.041904466,0.014624466,0.092621616
201,10,1.1,4,69.49152542,1361.256559,-3699.125,552.1828912,1221.28541,2167.740166,2772.467804,-3302.400972,-8215.403846,608.4237805,280.3961614,-21.925,-614.9187367,59.52,64.91637985,60.40039284,67.04582129,0,0.039026543,0.025615713,0.162232852
201,10,1.1,4,70.33898305,1729.228052,-3530,345.0223296,1367.942141,2368.991259,3374.724485,-3170,-8226,738,270,-16,-724,59.52,64.95739054,60.41868105,67.16164665,0,0.041010696,0.018288215,0.115825361
201,10,1.1,4,71.18644068,2067.58552,-3360.875,212.3506032,1493.877801,2550.246722,3907.618924,-2634,-8038,906,248,-39,-775,59.5444043,64.99805746,60.42,67.17,0.024404297,0.040666914,0.00131895,0.008353348
201,10,1.1,4,72.03389831,2216,-3284,132,1609,2629,4420,-2392.108297,-7995.647459,902.5634766,220.6789699,-37.53800348,-765.356247,59.57940159,65.04611089,60.41880318,67.17,0.034997291,0.048053436,-0.001196825,0
201,10,1.1,4,72.88135593,2203.728,-3473.572183,80.47375213,1723.525224,2494.424,4963.884957,-2170.811165,-7957.28524,892.8515625,190.3309129,-33.300213,-737.438322,59.53714635,65.13275188,60.33429269,67.17,-0.042255241,0.086640987,-0.084510482,0
201,10,1.1,4,73.72881356,2174.464,-3951.516548,44.11639113,1835.554067,2173.512,5521.006044,-1968.942387,-7922.739775,877.7607422,157.32615,-26.50892715,-692.7662263,59.52,65.20079424,60.3,67.17,-0.017146346,0.068042359,-0.034292693,0
201,10,1.1,4,74.57627119,2139.536,-4581.674821,15.52215408,1936.820298,1790.488,6034.784653,-1785.335747,-7891.837495,858.1875,122.0350021,-17.38644456,-632.859961,59.52,65.24352638,60.3,67.17,0,0.042732138,0,0
201,10,1.1,4,75.42372881,2110.272,-5227.88873,-12.71472198,2019.057686,1469.576,6448.642174,-1618.825029,-7864.404834,835.0283203,84.82779009,-6.155063819,-559.2395275,59.52,65.31591901,60.28186183,67.13746094,0,0.072392633,-0.018138174,-0.032539063
201,10,1.1,4,76.27118644,2098,-5754,-48,2074,1335,6706,-1468.244015,-7840.268224,809.1796875,46.0748348,6.962916455,-473.4249269,59.52,65.40834284,60.23617946,67.09,0,0.092423829,-0.045682363,-0.047460937
201,10,1.1,4,77.11864407,2109.388647,-6180.3135,-90.80848121,2111.51919,1374.607639,6861.037463,-1332.426489,-7819.254097,781.5380859,6.146457167,21.74519766,-376.9361605,59.52,65.48567872,60.19216212,67.09,0,0.077335882,-0.044017341,0
201,10,1.1,4,77.96610169,2143.352655,-6613.769427,-136.4209317,2146.860232,1484.111111,7005.30802,-1210.206235,-7801.188885,753,-34.58702193,37.96948118,-271.2932294,59.510625,65.59761113,60.18,67.043125,-0.009375,0.111932408,-0.012162122,-0.046875
201,10,1.1,4,78.81355932,2199.589126,-7048.162497,-184.4520617,2179.816431,1649.53125,7138.294244,-1100.417036,-7785.89902,724.4619141,-75.75528158,55.41346842,-158.0161349,59.46257813,65.75280594,60.18,66.80289063,-0.048046875,0.155194812,0,-0.240234375
201,10,1.1,4,79.66101695,2277.795163,-7477.28743,-234.5165815,2210.181096,1856.888889,7259.47871,-1001.892676,-7773.210935,696.8203125,-116.9880009,73.85486076,-38.62487823,59.4803216,65.61949961,60.20735599,66.79,0.017743471,-0.13330633,0.027355994,-0.012890625
201,10,1.1,4,80.50847458,2377.667866,-7894.938941,-286.2292013,2237.747534,2092.204861,7368.343991,-913.466938,-7762.951061,670.9716797,-157.914859,93.0713596,85.36053945,59.52352343,65.388099,60.23960297,66.78955212,0.043201833,-0.231400611,0.032246976,-0.000447875
201,10,1.1,4,81.3559322,2498.904337,-8294.911749,-339.2046313,2262.30905,2341.5,7464.372662,-833.9736055,-7754.945832,647.8125,-198.165535,112.8406663,212.4201169,59.55855206,65.28375868,60.20628409,66.75136019,0.035028629,-0.104340322,-0.033318879,-0.038191937
201,10,1.1,4,82.20338983,2641.201678,-8671.000571,-393.0575818,2283.658953,2590.795139,7547.047295,-762.2464619,-7749.021679,628.2392578,-237.369708,132.9404823,341.0338529,59.59389718,65.2742053,60.16244068,66.70071918,0.03534512,-0.009553381,-0.043843415,-0.05064101
201,10,1.1,4,83.05084746,2804.256992,-9017.000124,-447.4027631,2301.590548,2826.111111,7615.850466,-697.1192909,-7745.005034,613.1484375,-275.1570571,153.148509,469.6817462,59.63074069,65.3783254,60.12178243,66.64937072,0.036843515,0.104120104,-0.04065825,-0.051348459
201,10,1.1,4,83.89830508,2987.767379,-9326.705126,-501.8548853,2315.897144,3033.46875,7670.264748,-637.4258757,-7742.722331,603.4365234,-311.1572614,173.2424478,596.8437957,59.70566041,65.4889295,60.12,66.60939824,0.074919717,0.110604098,-0.001782427,-0.039972478
201,10,1.1,4,84.74576271,3191.429942,-9593.910294,-556.0286587,2326.372046,3198.888889,7709.772715,-582,-7742,600,-345,193,721,59.76,65.62648649,60.11932617,66.56359114,0.05433959,0.137556983,-0.000673828,-0.045807101
201,10,1.1,4,85.59322034,3414.941781,-9812.410347,-609.5387935,2332.808563,3308.392361,7733.856941,-528.5797888,-7898,734,-373.7613896,222.3788149,859.9354426,59.76,65.85645223,60.07391602,66.46171708,0,0.229965747,-0.045410156,-0.101874058
201,10,1.1,4,86.44067797,3658,-9976,-662,2335,3348,7742,-502,-8054,868,-406,242,1019,59.76777248,65.89933321,60.06,66.39674173,0.007772479,0.04288098,-0.013916016,-0.064975349
201,10,1.1,4,87.28813559,4175.285772,-10108.95326,-721.237254,2262.793222,3300.334729,7605.844517,-688,-7916,702,-458,236,1194,59.80819412,65.84511086,60.06,66.36201286,0.040421644,-0.054222353,0,-0.034728874
201,10,1.1,4,88.13559322,5114.029438,-10234.65128,-789.4592407,2073.093867,3168.137799,7234.524676,-885.4121591,-7924.469667,731.4765625,-533.2889025,299.8085937,1321.991493,59.84577046,65.80319846,60.06,66.3189819,0.037576335,-0.041912398,0,-0.043030956
201,10,1.1,4,88.98305085,6312.751844,-10345.54952,-857.8562343,1806.2834,2967.607535,6683.760391,-1074.626814,-7955.199572,809.1875,-631.2931323,468.03125,1432.972224,59.88375659,65.75169518,60.05953931,66.26292003,0.037986135,-0.051503283,-0.000460695,-0.056061868
201,10,1.1,4,89.83050847,7609.973841,-10434.10342,-917.6185092,1502.743289,2714.942264,6009.271575,-1267.183838,-8016.171073,919.0546875,-741.9173253,705.8632813,1531.680933,59.92151592,65.5838948,60.0225124,66.16136056,0.03775933,-0.167800377,-0.037026908,-0.101559474
201,10,1.1,4,90.6779661,8844.216277,-10492.76843,-959.9363397,1202.855,2426.34031,5266.77814,-1474.623102,-8115.365526,1045,-855.0661176,978.5,1622.856358,59.96158004,65.55460411,59.98330496,66.09535825,0.040064113,-0.029290689,-0.039207434,-0.066002306
201,10,1.1,4,91.52542373,9854,-10514,-976,947,2118,4512,-1708.484478,-8260.764288,1170.945313,-960.6441452,1251.136719,1711.237238,59.99845924,65.60732139,59.94886826,66.0578975,0.0368792,0.052717281,-0.0344367,-0.037460753
201,10,1.1,4,92.37288136,10616.02533,-9967.481481,-917.4074074,737.7503543,1647.446223,3586.635919,-1980.307838,-8460.348717,1280.8125,-1048.556044,1488.96875,1801.562313,60,65.57808467,59.87473641,66.0173101,0.001540764,-0.029236719,-0.074131849,-0.040587398
201,10,1.1,4,93.22033898,11306.232,-8952.518519,-808.5925926,533.8637307,1025.432477,2445.947741,-2301.633055,-8722.100168,1358.523438,-1108.70645,1657.191406,1898.57032,60.00008698,65.54,59.82,65.97548403,8.70E-05,-0.038084673,-0.054736414,-0.041826071
201,10,1.1,4,94.06779661,12062,-8406,-750,310,498,1316,-2684,-9054,1388,-1131,1721,2007,60.00931893,65.54,59.82,65.92167666,0.009231955,0,0,-0.053807368
201,10,1.1,4,94.91525424,13111.19487,-8620.032,-1131.264,3.7126439,142.3595937,177.3436289,-3372,-15244,1192,-1064,1471,2133,60.02957017,65.54,59.81942614,65.91141917,0.020251239,0,-0.000573856,-0.010257498
201,10,1.1,4,95.76271186,14406.53423,-9130.416,-2040.432,-376.2632756,-151.9275028,-1047.0619,2270,-15830,2298,-1191,1246,2187,60.05486263,65.54,59.81518326,65.92184421,0.025292459,0,-0.004242889,0.010425048
201,10,1.1,4,96.61016949,15672.67615,-9739.584,-3125.568,-748.4955171,-420.2943962,-2217.539242,2556,-12290,530,-1555,855,2418,60.09163858,65.615,59.80758671,65.94032204,0.036775949,0.075,-0.007596546,0.018477822
201,10,1.1,4,97.45762712,16634.27872,-10249.968,-4034.736,-1031.551839,-698.174193,-3194.411057,1438,-10588,-1816,-1732,644,3074,60.1234413,65.68954357,59.7975644,65.96437722,0.031802718,0.07454357,-0.010022308,0.024055181
201,10,1.1,4,98.30508475,17016,-10464,-4416,-1144,-1021,-3838,772,-11390,-864,-1715,614,3402,60.1399576,65.67433191,59.78604422,65.99153434,0.016516299,-0.015211663,-0.011520177,0.027157123
201,10,1.1,4,99.15254237,11808,-8898,2566,-685,-1423,-4152,34,-14004,882,-1731,668,3706,60.15530554,65.63990363,59.77395407,66.01931799,0.015347946,-0.034428281,-0.012090151,0.02778365
201,10,1.1,4,100,8892,-12162,1598,-370,-849,-4384,-332,-14950,1734,-1834,714,3924,60.16946056,65.5894395,59.76222184,66.04525275,0.014155016,-0.050464122,-0.011732232,0.02593476
201,10,1.1,1,0,-6092,-6274,5118,-926,-2259,-4146,1160,-15844,2040,-2033,485,4330,60.18239807,65.52612032,59.75084682,66.06918514,0.012937509,-0.063319185,-0.011375022,0.023932388
201,10,1.1,1,0.869565217,-7649.622722,-4968.859656,2.000000001,-1315.348225,-1747.920226,-3740.564846,654,-15088,1698,-2140,504,4673,60.19409349,65.45312685,59.73841451,66.09455011,0.011695426,-0.072993471,-0.012432312,0.025364966
201,10,1.1,1,1.739130435,-8144,-4262,-5114,-1507,-948,-3472,508,-17060,2172,-2077,437,5109,60.20452226,65.37363987,59.72500902,66.12108014,0.010428766,-0.07948698,-0.013405489,0.026530032
201,10,1.1,1,2.608695652,-1847.62963,-3588.919925,-3633.111111,-1417.555556,-295.6233012,-4098.62963,848,-16869.38823,2489.825098,-2031.653669,444.6466981,5331.06543,60.21365979,65.29084016,59.71076723,66.14837645,0.009137528,-0.082799711,-0.014241789,0.027296309
201,10,1.1,1,3.47826087,9845.62963,-3039.348852,-882.8888889,-1251.444444,310.7439049,-5262.37037,1188,-16434,2644,-1971,466,5539,60.2214815,65.20790849,59.69582602,66.17604024,0.007821714,-0.082931665,-0.014941211,0.027663798
201,10,1.1,1,4.347826087,16142,-2812,598,-1162,578,-5889,872.7235756,-15411.9966,2426.61039,-1676.3149,648.8822403,5863.951994,60.22796283,65.12802565,59.68032226,66.20367274,0.006481324,-0.079882842,-0.015503756,0.027632498
201,10,1.1,1,5.217391304,10965.28017,-4264.13387,-570.1493924,-1374.5,-286,-4521.5,34,-14188,2036,-1426,967,6272,60.23307918,65.05437241,59.66439284,66.23087515,0.005116356,-0.073653241,-0.015929423,0.027202409
201,10,1.1,1,6.086956522,4552,-6222,-1880,-1587,-1150,-3154,-2970,-13420,1646,-1598,1318,6789,60.23680599,64.99012954,59.64817463,66.25724868,0.003726811,-0.064242863,-0.016218213,0.026373532
201,10,1.1,1,6.956521739,2361.719832,-7125.136969,-2110.850608,-1399.471619,-579,-3328.5,-5458,-15406,3278,-1849,2222,7288,60.23911868,64.93847784,59.63133299,66.28401068,0.00231269,-0.051651708,-0.016841642,0.026761998
201,10,1.1,1,7.826086957,1408,-7660,-2200,-1045,-8,-3503,-7308,-17798,3582,-2051,2521,7240,60.23999268,64.90259806,59.61222455,66.31579002,0.000873992,-0.035879775,-0.019108433,0.031779337
201,10,1.1,1,8.695652174,5162,-7844,-1004,-635,-44,-3081,-7249.453353,-18584.28749,4786.901212,-2030.933909,2945.430171,6581.87673,60.2395834,64.87768489,59.59319512,66.34187183,-0.00040928,-0.024913175,-0.019029433,0.02608181
201,10,1.1,2,9.565217391,5408,-7928,-226,-549,-249,-2620,-7110,-18892,5768,-1985,3371,5485,60.23821282,64.85342894,59.57701702,66.34962624,-0.001370575,-0.024255942,-0.0161781,0.007754411
201,10,1.1,2,10.43478261,5358.209224,-7983.765767,-322.5625,-398.3136066,-219.1373798,-2262.936461,-6824.709731,-15675.62963,4010.740741,-1886.485615,3747.773042,4260.773541,60.23599852,64.8298327,59.56112775,66.33838784,-0.002214301,-0.023596241,-0.015889269,-0.0112384
201,10,1.1,2,11.30434783,5224.224596,-8030.469288,-535,-197.9906063,-150.7830129,-1952.685202,-6254.850627,-9702.37037,747.2592593,-1724.239431,4084.330965,2959.181204,60.23305607,64.80699208,59.54525787,66.31716544,-0.002942449,-0.022840621,-0.015869879,-0.0212224
201,10,1.1,2,12.17391304,5029.127671,-8068.438164,-747.4375,-4.922302908,-75.78713954,-1657.591342,-5344,-6486,-1010,-1543,4230,2256,60.22950105,64.785003,59.53164829,66.29363904,-0.003555018,-0.021989082,-0.013609578,-0.0235264
201,10,1.1,2,13.04347826,4796,-8098,-844,124,-26,-1346,-2444,-6832,654,-1339,2821,2144,60.22544904,64.76396138,59.52253993,66.27548864,-0.004052008,-0.021041623,-0.009108366,-0.0181504
201,10,1.1,2,13.91304348,4270.985544,-8123.837414,-731.2731129,188.6879821,-2.369043206,-993.5730809,-1677.047046,-5083.037037,501.037037,-834.2277278,1603.365008,1719.236666,60.22101563,64.74396313,59.52,66.27504857,-0.004433419,-0.019998246,-0.002539928,-0.000440068
201,10,1.1,2,14.7826087,3552.048328,-8145.140929,-456.3240036,236.3411632,15.55122969,-633.4073015,-1253.490685,-1834.962963,216.962963,-122.8878019,536.0893139,993.4350628,60.21631637,64.72510418,59.52,66.38219603,-0.004699251,-0.018858948,0,0.107147454
201,10,1.1,2,15.65217391,3190,-8154,-114,281,28,-320,-654,-86,64,432,-7,279,60.21146687,64.70748045,59.52238464,66.45447477,-0.004849503,-0.017623732,0.00238464,0.072278749
201,10,1.1,2,16.52173913,3508.472813,-7882,395.9956692,337.4604542,37.44818653,-85.6976504,604,-262,1232,709,-105,-314,60.20658269,64.69118786,59.53449984,66.49877401,-0.004884177,-0.016292596,0.0121152,0.044299235
201,10,1.1,2,17.39130435,3888,-7610,968,370,42,141,467.8773508,-656.0084422,1259.933641,952.1034848,-139.9972496,-925.3912633,60.20177942,64.67632231,59.55179904,66.53452513,-0.004803272,-0.014865541,0.0172992,0.035751122
201,10,1.1,2,18.26086957,3992.527187,-7684,1498.103249,333.5148253,-69.5,452.6067262,110,-1254,1268,1215,-178,-1624,60.19717264,64.66297975,59.56852224,66.57084386,-0.004606787,-0.013342566,0.0167232,0.036318731
201,10,1.1,2,19.13043478,4036,-7758,1794,263,-181,720,-1110,-2134,-162,1581,-319,-2579,60.19287791,64.65125608,59.57890944,66.61684592,-0.004294724,-0.011723672,0.0103872,0.04600206
201,10,1.1,2,20,2970,-7718,1586,176,-170,846,-1328,-2528,-888,1786,-408,-3160,60.18901083,64.64124722,59.58,66.68428086,-0.003867082,-0.010008859,0.00109056,0.067434937
201,10,1.1,2,20.86956522,1938.224637,-7886,1286.350877,124.1737918,-121.4683063,868.3445596,-924,-3088,-1196,2112,-753,-3718,60.18568697,64.63304909,59.58,66.77967265,-0.00332386,-0.008198127,0,0.095391786
201,10,1.1,2,21.73913043,1068,-8054,1098,100,-53,876,-1006.853871,-3284.552904,-975.1111111,2382.873052,-1111.97205,-4100.068681,60.18302191,64.62675761,59.58,66.89011533,-0.00266506,-0.006291475,0,0.110442687
201,10,1.1,2,22.60869565,504,-7696,1240,144,3,783,-1190.152186,-3404.158218,-564.8888889,2621.423723,-1462.992184,-4414.768556,60.18113123,64.62246871,59.58,67.0174548,-0.00189068,-0.004288904,0,0.127339463
201,10,1.1,2,23.47826087,1338,-7690,1224,21,-39,714,-1376,-3584,-344,2796,-1725,-4731,60.18013051,64.6202783,59.58,67.16163234,-0.001000722,-0.002190413,0,0.144177547
201,10,1.1,2,24.34782609,1013.01829,-7876.543127,1208.329747,-48.99451498,-111.6514346,684.744722,-1520.35422,-3989.181873,-397.6561265,2895.785973,-1912.620381,-5068.352185,60.18,64.62,59.56608398,67.34138762,-0.000130508,-0.000278298,-0.013916016,0.179755277
201,10,1.1,2,25.2173913,462,-8160,1178,-101,-160,648,-1692,-4564,-494,2989,-2005,-5415,60.18,64.62,59.52067383,67.54047519,0,0,-0.045410156,0.199087572
201,10,1.1,2,26.08695652,-2,-8330,828,-143,-158,450,-1974,-5282,-590,3135,-1962,-5788,60.18,64.58958825,59.52,67.60114154,0,-0.030411753,-0.000673828,0.060666347
201,10,1.1,2,26.95652174,14.53759011,-8292.666667,829.5149193,-176.9831605,-155.2797271,270.6985927,-2190,-5702,-514,3220,-1850,-6040,60.1773621,64.53403289,59.52494606,67.643053,-0.002637899,-0.055555354,0.004946061,0.041911463
201,10,1.1,2,27.82608696,59.32028836,-8199.333333,834.0921862,-209.4837087,-151.8869396,102.4567732,-2420.020342,-5861.25,-206.9193643,3304.790539,-1683.187903,-6330.430271,60.14078567,64.47132336,59.5715978,67.68317728,-0.03657643,-0.06270953,0.04665174,0.040124281
201,10,1.1,2,28.69565217,125.1029866,-8078,841.7805643,-239.3686555,-148.3421053,-60.52972711,-2620,-5926,44,3386,-1503,-6607,60.08955424,64.40396857,59.58,67.73389538,-0.051231427,-0.06735479,0.008402198,0.050718097
201,10,1.1,2,29.56521739,204.6405767,-7956.666667,852.6288169,-265.5050122,-145.165692,-224.065177,-2753.81703,-5906,-6.579675573,3456.954086,-1354.719947,-6826.621224,60.06030531,64.34494462,59.58,67.77944528,-0.029248931,-0.059023953,0,0.045549902
201,10,1.1,2,30.43478261,290.6879506,-7863.333333,866.6857077,-286.75979,-142.8781676,-393.953845,-2859.872371,-5862,-129.7124682,3521.773715,-1218.865598,-7021.03677,60.06,64.30176436,59.58,67.74663805,-0.000305312,-0.043180258,0,-0.032807236
201,10,1.1,2,31.30434783,376,-7826,884,-302,-142,-576,-2961.491526,-5818,-282.4890267,3589.206487,-1079.82845,-7205.683931,60.05907717,64.26099334,59.58175781,67.69167421,-0.000922834,-0.040771025,0.001757812,-0.054963831
201,10,1.1,2,32.17391304,490.3424827,-7878,960.7398119,-310.8193713,-151.084507,-795.1018528,-3082,-5798,-422,3668,-922,-7396,60.032227,64.20587806,59.6221875,67.65422952,-0.026850171,-0.055115273,0.040429688,-0.037444697
201,10,1.1,2,33.04347826,588,-7930,1028,-319,-172,-989,-3240,-6116,-542,3772,-725,-7595,59.98496655,64.15338422,59.66265824,67.4892145,-0.047260447,-0.052493847,0.040470735,-0.165015014
201,10,1.1,2,33.91304348,632.2898551,-7808,1007.771429,-329.6393683,-224.5821596,-1101.125149,-3353.466508,-6598.847457,-633.5818182,3852.450551,-658.9710216,-7717.341493,59.94,64.13,59.7,67.24,-0.044966549,-0.023384217,0.037341765,-0.249214504
201,10,1.1,2,34.7826087,652,-7686,980,-347,-284,-1200,-3458,-7084,-680,3910,-633,-7775,59.8959948,64.13,59.73547734,67.24,-0.044005197,0,0.035477343,0
201,10,1.1,2,35.65217391,524,-8392,970.6058534,-419.4593134,-314.9449838,-1319.055912,-3576,-7408,-656,3939,-826,-7734,59.88,64.13,59.76981885,67.24,-0.015994803,0,0.034341505,0
201,10,1.1,2,36.52173913,396,-9098,958,-516,-340,-1444,-3442,-8096,-1042,3929,-1299,-7541,59.88,64.13,59.80175453,67.24,0,0,0.031935681,0
201,10,1.1,2,37.39130435,1287,-8589,470.6227181,-581.7214384,-359.152738,-1603.232,-3864.398913,-8698.597304,-1272.536783,3863.733744,-1756.967203,-7291.779868,59.86783788,64.15000407,59.8771858,67.21999593,-0.012162122,0.020004071,0.075431271,-0.020004071
201,10,1.1,2,38.26086957,2178,-8080,-6,-642,-387,-1700,-4628,-9156,-1446,3752,-2162,-7005,59.82382054,64.19930185,59.99361534,67.17069815,-0.044017341,0.049297781,0.116429542,-0.049297781
201,10,1.1,2,39.13043478,1728,-8282,244,-702,-514,-1641,-5404,-9396,-1584,3617,-2463,-6683,59.77813817,63.9567627,60.03678516,67.2338537,-0.045682363,-0.242539157,0.043169821,0.063155548
201,10,1.1,2,40,1366,-9034,860,-706,-961,-1612,-6606,-9942,-2026,3276,-2848,-6019,59.76553711,63.8472168,60.07134895,67.3565521,-0.012601065,-0.109545898,0.03456379,0.122698406
201,10,1.1,2,40.86956522,3246,-10140,1844,-642,-1016,-1621,-7828.609491,-10498.66235,-2341.512501,2899.359401,-2994.463768,-5325.566099,59.81446289,64.3527832,60.1091788,67.50298126,0.048925781,0.505566406,0.037829844,0.146429155
201,10,1.1,2,41.73913043,1019,-11344.29987,1847.122149,-670.954321,-819.2368973,-1714.435396,-9054.078058,-11015.99784,-2596.867362,2492.823089,-3091.731884,-4592.868242,59.78761237,64.36294925,60.1435236,67.6950769,-0.026850524,0.010166042,0.034344807,0.192095642
201,10,1.1,2,42.60869565,-1208,-12034,1848,-736,-597,-1845,-10234,-11244,-2702,2039,-3127,-3740,59.70532806,64.27124829,60.17649864,67.8580567,-0.082284304,-0.09170096,0.032975033,0.1629798
201,10,1.1,2,43.47826087,-217,-11585.2,1105,-869.7843672,-555.2631027,-1911.046491,-11126.65097,-10351.59073,-1344.518519,1370.25326,-3034.185185,-2660.388139,59.66183153,64.27,60.22168269,67.62862793,-0.043496536,-0.001248285,0.045184051,-0.229428768
201,10,1.1,2,44.34782609,774,-10978,362,-1047,-539,-1994,-11978.62635,-8028.514788,1176.518519,634.5710744,-2861.814815,-1385.835552,59.63227691,64.27,60.23446289,67.4740612,-0.029554621,0,0.012780204,-0.154566726
201,10,1.1,2,45.2173913,-1554,-10738,492,-1209,-645,-2253,-13474,-4806,2534,288,-2769,-43,59.60721956,64.27,60.18553711,67.52822355,-0.02505735,0,-0.048925781,0.054162344
201,10,1.1,2,46.08695652,-1310.973437,-11885,721.7619618,-1207,-533.5,-2575.198431,-19128,1538,-210,519,-3226,1376,59.58780123,64.27,60.19779859,67.65247848,-0.019418323,0,0.012261478,0.124254929
201,10,1.1,2,46.95652174,-736,-13032,1056,-1205,-422,-2912,-18889.33959,-664,-2187.252939,-292.8603673,-2325.051588,2871.455353,59.58,64.27,60.24,67.78,-0.007801233,0,0.042201412,0.127521524
201,10,1.1,2,47.82608696,588,-12088,1582,-1230,-561,-3217,-18136,-2866,-3170,-1328,-1391,4246,59.58,64.26111742,60.26586907,67.78,0,-0.008882581,0.025869069,0
201,10,1.1,2,48.69565217,-439,-12534.64902,1252,-1296.883758,-568.0268521,-3487.333919,-10770,-472,-2756,-1644,-1353,5285,59.58,64.23775226,60.29126328,67.78,0,-0.023365161,0.025394211,0
201,10,1.1,2,49.56521739,-1466,-13274,922,-1347,-574,-3746,-4838.643098,-801.81215,-2504.683088,-1958.95123,-1155.333,5071.5625,59.58,64.20482839,60.31470182,67.78,0,-0.032923871,0.023438534,0
201,10,1.1,3,50.43478261,-1103,-13790.29691,1471,-1319.5,-635.9274809,-3998.208364,741.5950236,-1679.999067,-2330.788679,-2281.81776,-767.7164518,4602,59.58,64.16726968,60.33470385,67.78,0,-0.03755871,0.020002039,0
201,10,1.1,3,51.30434783,-740,-14430,2020,-1292,-692,-4266,4885.535634,-2939.68645,-2118.499929,-2533.52541,-320.9916781,4132.4375,59.58,64.13,60.34978858,67.78,0,-0.037269677,0.015084724,0
201,10,1.1,3,52.17391304,-2202,-15714,1156,-1509,-575,-4593,6508,-4414,-1752,-2635,54,3919,59.53898438,64.07715852,60.35847517,67.78,-0.041015625,-0.052841482,0.008686591,0
201,10,1.1,3,53.04347826,-1498.699487,-15627.15902,1434,-1457.698734,-698.0009921,-4896.00692,-2032,-7514.500467,-24.11571583,-2283.74026,389.8778391,4160,59.52,64.08940769,60.36,67.757529,-0.018984375,0.012249176,0.00152483,-0.022470995
201,10,1.1,3,53.91304348,-640,-15404,1712,-1360,-937,-5195,-10572,-9852,1914,-1904,578,4401,59.52,64.25268878,60.36,67.59648687,0,0.163281091,0,-0.161042133
201,10,1.1,3,54.7826087,-452.2900481,-14204.84098,1344,-1213.801266,-1295.887558,-5514.075322,-5420,-5262,2556,-1870,560,4139,59.52,64.27,60.38214126,67.44419453,0,0.017311215,0.022141258,-0.152292338
201,10,1.1,3,55.65217391,-252,-13142,976,-1114,-1583,-5821,-4613.059534,-5701.915021,-360.8839763,-1993.5,636.5,3684.62861,59.52,64.27,60.42,67.32,0,0,0.037858742,-0.124194533
201,10,1.1,3,56.52173913,1493.314729,-14957.85185,1527.752109,-1270.250471,-1638.541937,-6144.406569,-4124,-6536,-3664,-2117,713,3270,59.48214126,64.38692985,60.42,67.26866109,-0.037858742,0.116929847,0,-0.051338913
201,10,1.1,3,57.39130435,4382.657365,-18330.14815,2692.393107,-1561.834275,-1667.342228,-6448.981062,-3365.9616,-7737.838629,-4298.116024,-1484.331552,423,3098.351316,59.46,64.49919548,60.42,67.22669589,-0.022141258,0.112265637,0,-0.041965194
201,10,1.1,3,58.26086957,5904,-20146,3734,-1723,-1728,-6584,-2920,-8604,-4546,-754,133,2941,59.46,64.54647901,60.42,67.18363054,0,0.047283522,0,-0.04306535
201,10,1.1,3,59.13043478,5061.848656,-18829.57462,4542.695544,-1728.84322,-2329.577295,-6142.705244,-3478.361623,-8695.24635,-1341,-621.2355831,178,2676.423658,59.46,64.5072596,60.42,67.13468014,0,-0.039219403,0,-0.048950404
201,10,1.1,4,60,3238,-15978,4984,-1731,-3153,-5232,-4054,-8728,1864,-526,223,2360,59.46,64.40139755,60.41946502,67.08569399,0,-0.10586205,-0.000534979,-0.048986145
201,10,1.1,4,60.86956522,-977.8486556,-9381.425376,4749.719499,-1705.097087,-3722.452594,-3461.294756,-4082.320077,-8507.694406,888.6666667,-405.3946401,200.9452559,2006.238942,59.46,64.30333486,60.38016461,67.04769455,0,-0.098062691,-0.039300412,-0.037999447
201,10,1.1,4,61.73913043,-4212,-4320,4034,-1639,-4022,-2160,-4098.715594,-8073.166589,-922.6666667,-279.4127527,151.7794007,1631.421314,59.46,64.28035121,60.36553711,67.00393135,0,-0.022983656,-0.0146275,-0.043763199
201,10,1.1,4,62.60869565,1648,-8646,-1366,-1439,-2340,-3363,-4104,-7764,-1898,-141,101,1324,59.46,64.38594898,60.41446289,66.94537839,0,0.10559777,0.048925781,-0.05855296
201,10,1.1,4,63.47826087,2112.586538,-6595.876432,-1384.731302,-883.6601008,-572.4963197,-2961.195776,-3844,-7670,-1246,23,56,1122,59.48214126,64.44944499,60.42,66.94,0.022141258,0.063496009,0.005537109,-0.005378388
201,10,1.1,4,64.34782609,2256,-4208,-1390,-268,877,-2388,-3937.333333,-7837.481481,-383.7236479,114.0557282,23.07546,862.9261765,59.52,64.48,60.42,66.94,0.037858742,0.030555015,0,0
201,10,1.1,4,65.2173913,322,-3774,-460,55,1658,-2111,-4110.666667,-8148.518519,506.3603983,181.5834196,-4.245026443,576.6586358,59.52,64.43214844,60.42,66.83746094,0,-0.047851563,0,-0.102539063
201,10,1.1,4,66.08695652,-103.9767455,-3428.006894,1446.78934,246.4629032,1765.588863,-1374.214306,-4204,-8316,916,208,-23,327,59.52,64.41620693,60.410625,66.80681221,0,-0.015941503,-0.009375,-0.030648726
201,10,1.1,4,66.95652174,-256,-3250,2780,420,1801,-363,-4116,-7750,602,194,-33,144,59.52,64.46733395,60.36257813,66.92002806,0,0.051127015,-0.048046875,0.113215845
201,10,1.1,4,67.82608696,704,-4686,2670,647,1611,651,-3577.253482,-7935,571.579646,199,-71.6627907,-32.80875047,59.49497942,64.56344798,60.36,67.00691377,-0.025020576,0.096114034,-0.002578125,0.086885714
201,10,1.1,4,68.69565217,896,-5070,1832,737,1473,1372,-3108,-8120,562,204,-103,-226,59.46,64.69,60.36,67.09,-0.034979424,0.126552016,0,0.08308623
201,10,1.1,4,69.56521739,684,-5062,478,882,1326,2390,-3542,-7614,1342,183,-53,-477,59.50101563,64.77921853,60.36,67.20496148,0.041015625,0.089218532,0,0.114961479
201,10,1.1,4,70.43478261,895.1786208,-4826.611367,216.7013339,1023.773967,1305.833622,3108.088036,-3343.227621,-7621.309148,1453.212034,78.00688426,16.69955741,-619.7602531,59.52,64.86734717,60.369375,67.24,0.018984375,0.08812864,0.009375,0.035038521
201,10,1.1,4,71.30434783,1336.135019,-4377.100991,79.14939406,1163.506344,1297.034955,3705.412871,-2962,-7642,1490,-40,74,-691,59.52,64.95729214,60.41742188,67.24,0,0.08994497,0.048046875,0
201,10,1.1,4,72.17391304,1718,-4058,-68,1301,1279,4270,-2556.969252,-7863.934368,1002,-94.71947195,96.46892085,-698.6974504,59.52,65.01451755,60.42,67.20808467,0,0.057225412,0.002578125,-0.031915327
201,10,1.1,4,73.04347826,1991.007385,-3931.236853,-328.0990453,1432.502276,1186.451305,4830.200689,-1978,-8248,514,-120,114,-706,59.52,65.04,60.41940159,67.17,0,0.025482446,-0.000598412,-0.038084673
201,10,1.1,4,73.91304348,2136,-3874,-490,1568,1018,5351,-866,-8650,844,-104,135,-740,59.52,65.04,60.37714635,67.17,0,0,-0.042255241,0
201,10,1.1,4,74.7826087,2104.839695,-4081.397959,-479.69375,1731.384772,735.8711238,5828.301767,-626.9128946,-8469.389606,584.6786834,-111,109.0749097,-634.3984678,59.52,65.04,60.36,67.17,0,0,-0.017146346,0
201,10,1.1,4,75.65217391,2032,-4474,-456,1882,424,6277,-542,-8118,286,-118,60,-449,59.52,65.04,60.36,67.17,0,0,0,0
201,10,1.1,4,76.52173913,1801.160305,-5046.175212,-386.30625,1985.315797,191.1743465,6703.472216,-1620,-7676,236,-60,3,-276,59.52,65.07555969,60.31983349,67.17,0,0.035559692,-0.040166506,0
201,10,1.1,4,77.39130435,1612,-5442,-330,2073,19,7121,-1276,-7858,137.8170732,-27.39643226,39.51315789,-124.1369999,59.52,65.19857605,60.23496873,67.16955811,0,0.123016357,-0.084864768,-0.000441893
201,10,1.1,4,78.26086957,1640,-5452,-614,2155,-71,7546,-932,-8040,70,-10,77,16,59.52,65.31097229,60.18519289,67.12321812,0,0.11239624,-0.049775832,-0.04633999
201,10,1.1,4,79.13043478,1552.133574,-5315,-829.6973825,2246.280965,-26.63850309,7857.95444,-1001.837329,-8040,201.9501425,-4.964912281,77.96086808,161.4868052,59.52,65.33,60.14381264,67.0238697,0,0.01902771,-0.04138025,-0.099348422
201,10,1.1,4,80,1396,-5178,-1014,2340,74,8120,-1172,-8040,492,-3,79,272,59.52,65.33,60.12142712,66.90467238,0,0,-0.022385528,-0.119197317
201,10,1.1,4,80.86956522,1206.866426,-5432.58196,-1203.052413,2437.44615,271.4673972,8389.843366,-1606,-7830,1018,-43,97,320,59.53813817,65.33,60.12,66.77836908,0.018138174,0,-0.001427116,-0.126303299
201,10,1.1,4,81.73913043,1086,-5900,-1330,2520,577,8564,-1864,-7808,1154,-124,159,404,59.58382054,65.33,60.12,66.62372462,0.045682363,0,0,-0.154644463
201,10,1.1,4,82.60869565,1212.984013,-6367.111011,-1377.246248,2582.064655,1062.399897,8616.392886,-1478,-6986,1052,-161,194,518,59.62783788,65.33,60.12,66.43083375,0.044017341,0,0,-0.192890866
201,10,1.1,4,83.47826087,1549.790701,-6902.790535,-1413.163331,2638.724138,1720.465301,8654.988121,-1482.0625,-7127.048373,927.9540428,-196.0939096,228.2465049,610.046128,59.64,65.38625,60.110625,66.32558131,0.012162122,0.05625,-0.009375,-0.105252441
201,10,1.1,4,84.34782609,2030.202039,-7485.574791,-1435.998749,2680.021552,2340.048055,8678.839295,-1491,-7453.628995,789.5305777,-229.8568085,262.5115132,690.0310071,59.64,65.67453125,60.06257813,66.28275104,0,0.28828125,-0.048046875,-0.042830267
201,10,1.1,4,85.2173913,2588,-8094,-1444,2696,2710,8687,-1499.9375,-7820.895119,653.3418238,-267.1913032,292.5207648,776.2503826,59.71151639,65.52586403,60.06,66.17365439,0.071516385,-0.148667216,-0.002578125,-0.109096656
201,10,1.1,4,86.08695652,3485.660526,-8816.862415,-1205.25,2619.1237,2873.611525,8611.711045,-1504,-8084,536,-313,314,887,59.82508663,65.33209444,60.06039703,66.03968768,0.113570243,-0.193769591,0.00039703,-0.133966711
201,10,1.1,4,86.95652174,4814.509472,-9640.042014,-680,2431.079866,3006.376911,8416.229452,-1008,-8212,446,-381,326,1063,59.86097013,65.47998779,60.09371591,65.93621616,0.035883503,0.147893344,0.033318879,-0.103471515
201,10,1.1,4,87.82608696,6251.603682,-10387.70061,-154.75,2195.746099,3095.453842,8146.133134,-718,-8122,896,-391,279,1189,59.89483122,65.54,60.13755932,65.9428125,0.033861084,0.060012212,0.043843415,0.006596339
201,10,1.1,4,88.69565217,7474,-10884,84,1977,3128,7847,-827.874189,-8176.186585,1333.937813,-466.4417924,427.0765684,1331.674845,59.93264769,65.54,60.17821757,66.11097656,0.037816471,0,0.04065825,0.168164063
201,10,1.1,4,89.56521739,8376,-11112,-220,1781,2889,7432,-1131.526156,-8351.26206,1733.413351,-616.3923938,726.9309145,1482.743045,59.97055956,65.41233869,60.18,66.12,0.037911878,-0.127661307,0.001782427,0.009023437
201,10,1.1,4,90.43478261,9776,-11148,-466,1468,2452,6614,-1590,-8666,1908,-775,962,1628,60.00249845,65.26018894,60.17907861,66.11842773,0.031938888,-0.152149752,-0.000921389,-0.001572266
201,10,1.1,4,91.30434783,10833.56615,-11009.19941,-478.3242188,1161.5874,2053.858512,5751.105022,-2808,-10902,1774,-927,1062,1760,60.02770354,65.27814815,60.10502479,66.0124707,0.025205088,0.017959206,-0.074053817,-0.105957031
201,10,1.1,4,92.17391304,11582,-10716,-482,875,1668,4842,438,-13820,2580,-1054,835,1943,60.04886843,65.30896319,60.01683993,65.98,0.021164887,0.030815037,-0.088184867,-0.032470703
201,10,1.1,4,93.04347826,12069.5169,-10292.1921,-475.2592593,613.1358281,1251.922366,3869.989008,1524,-11552,1432,-1208,687,2156,60.05964849,65.32925982,59.94308153,65.98,0.010780065,0.02029663,-0.073758399,0
201,10,1.1,4,93.91304348,12444.2029,-9669.804864,-462.7407407,370.0238925,836.4361455,2851.739018,741,-11088.84121,581.0394247,-1337.217407,689.3866856,2344.875831,60.06,65.33,59.94,65.98,0.000351508,0.000740184,-0.003081528,0
201,10,1.1,4,94.7826087,12594,-8896,-456,162,497,1816,-42,-10926,154,-1465,697,2534,60.06,65.33088072,59.93865234,65.98,0,0.000880723,-0.001347656,0
201,10,1.1,4,95.65217391,12087,-7447.551724,-803,-39.25865052,207.9354447,742.9980344,272,-11902,648,-1613,779,2748,60.06,65.40963708,59.84783203,65.98,0,0.078756359,-0.090820313,0
201,10,1.1,4,96.52173913,11580,-6416,-1150,-148,57,-302,64,-12434.30821,980.800697,-1742.108596,734.7062424,3062.304803,60.06,65.56515296,59.82,65.98,0,0.155515875,-0.027832031,0
201,10,1.1,4,97.39130435,12140,-6437.62554,-933.7069125,-137.8159894,346.5925926,-1350.041121,-144,-12902,1212,-1853,670,3349,60.06,65.75743471,59.82,65.98,0,0.19228175,0,0
201,10,1.1,4,98.26086957,13180,-6510.36219,-369.8582694,-102.5208676,884.4074074,-2346.15401,74,-13514,1338,-1938,636,3496,60.09,65.685,59.85,65.98,0.03,-0.072434707,0.03,0
201,10,1.1,4,99.13043478,13740,-6646,414,-35,1174,-3005,-205,-13136,1729.965241,-1986.094638,702,3760.653312,60.12,65.61,59.87953931,65.98053748,0.03,-0.075,0.029539305,0.000537477
201,10,1.1,4,100,10244,-8060,1968,997,827,-3287,-484,-12758,2034,-2024,768,4074,60.12,65.61,59.8425124,66.02373554,0,0,-0.037026908,0.04319806
201,10,1.1,1,0,1054,-7300,5352,590,-136,-3144,338,-13903,1769.159744,-2054.27821,605.5,4364.23938,60.14503562,65.59972135,59.80219589,66.07517671,0.02503562,-0.010278645,-0.040316506,0.051441172
201,10,1.1,1,0.862068966,-3528,-11738,5846,-565,-1800,-2955,1160,-15048,1472,-2095,443,4638,60.2354081,65.54916681,59.76720466,66.11820244,0.090372481,-0.050554548,-0.034991236,0.043025733
201,10,1.1,1,1.724137931,-2405.628002,-10600.81722,3272.592593,-894.7089947,-1127.222222,-3513.444444,748,-14904,1432,-2227,525,4871,60.24,65.50815682,59.73,66.12,0.004591899,-0.041009986,-0.037204656,0.001797558
201,10,1.1,1,2.586206897,160.7439956,-8311.634444,-1506.592593,-1099.57672,122.2222222,-4550.555556,1282,-15312.68554,1942.718217,-2046.335123,531.4175135,5220.385748,60.24,65.47118237,59.69204016,66.1221494,0,-0.03697445,-0.037959841,0.0021494
201,10,1.1,1,3.448275862,2970,-6554,-4080,-1170,795,-5109,1816,-15956,2590,-1864,537,5617,60.24,65.43499082,59.64874188,66.17236719,0,-0.03619155,-0.043298277,0.05021779
201,10,1.1,1,4.310344828,6569.581502,-5658.330626,-1865.733529,-1021,103.2917325,-4991.245342,462.2328013,-16330.98014,2797.7035,-1861.183474,818.8586835,6062.122681,60.24,65.39705251,59.64,66.22554651,0,-0.037938311,-0.008741882,0.05317932
201,10,1.1,1,5.172413793,8904,-5228,706,-872,-592,-4713,-2551.379196,-16624.52255,2925.582201,-1859.329755,1446.841162,6555.053495,60.24,65.35483778,59.64,66.26823326,0,-0.042214733,0,0.042686749
201,10,1.1,1,6.034482759,4368,-7616,1164,-1107,-596,-4075,-5653.301596,-16997.30369,3050.169802,-1858.311158,2126.653059,6954.45756,60.24,65.30581696,59.61,66.27,0,-0.049020815,-0.03,0.001766741
201,10,1.1,1,6.896551724,3132,-8822,-1550,-1344,-412,-3802,-7272,-17610,3248,-1858,2564,7119,60.24229595,65.2458873,59.58,66.27,0.00229595,-0.059929668,-0.03,0
201,10,1.1,1,7.75862069,2474.001637,-8726.802432,-2737.15188,-924.5160089,-170.1906736,-3579.400572,-7498,-19580,3672,-2005,2722,6790,60.28748219,65.14942966,59.58,66.27,0.045186241,-0.096457635,0,0
201,10,1.1,1,8.620689655,2178,-8552,-3240,-371,-20,-3343,-5109,-17377.65056,5248.052691,-1933.310345,3434.569284,5797.495196,60.3,65.08454603,59.58,66.27,0.01251781,-0.064883628,0,0
201,10,1.1,2,9.482758621,3055.824272,-8318.197568,-971.825411,-118.9839911,-15.52261307,-3008.376273,-2720,-13510,6516,-1785,4028,4488,60.3,65.04417438,59.58,66.27,0,-0.040371651,0,0
201,10,1.1,2,10.34482759,4152,-8164,1428,-1,-14,-2629,-3130,-9537.517746,4804.498002,-1578.228598,3915.736473,3201.422603,60.3,65.0026899,59.58,66.30367718,0,-0.041484485,0,0.033677183
201,10,1.1,2,11.20689655,4454,-8490,1582,-20,-92,-2250,-3540,-6130,2248,-1280,3646,2322,60.3,64.96090983,59.58,66.35951761,0,-0.041780066,0,0.055840423
201,10,1.1,2,12.06896552,4260.592593,-8466.246077,1319.111111,33.14814815,-80.07407407,-1838.243521,-3193.917554,-4199.513227,434.9665148,-770.5698486,2581.412617,2125.074113,60.3,64.91032974,59.58,66.40995522,0,-0.050580094,0,0.050437614
201,10,1.1,2,12.93103448,3901.407407,-8403.381042,830.8888889,131.8518519,-57.92592593,-1416.643831,-2434.946219,-2732.141929,-1161.627854,-124.5768776,914.122495,2019.029669,60.3,64.90433397,59.58,66.42,0,-0.005995764,0,0.010044779
201,10,1.1,2,13.79310345,3708,-8314,568,185,-46,-1039,-1682,-1612,-1848,343,-11,1826,60.3,64.93024042,59.58,66.42,0,0.025906447,0,0
201,10,1.1,2,14.65517241,3813.259465,-8047.389831,1167,147.04,-46.78947368,-729.5583026,-1078,-822,-930,545,-75,1148,60.3,64.959653,59.58,66.50161001,0,0.029412583,0,0.081610014
201,10,1.1,2,15.51724138,3994,-7830,1766,81,-49,-448,222,-1200,1174,874,9,138,60.3,64.97,59.58,66.57,0,0.010346996,0,0.068389986
201,10,1.1,2,16.37931034,4152,-7906,1724,21,-59,-176,684,-1798,1746,1127,98,-448,60.3,64.97,59.58,66.57,0,0,0,0
201,10,1.1,2,17.24137931,3728.442688,-7775,1288.776233,-20.59493671,-61.39495798,0.044813137,-249,-2722.134854,990.0915698,1396.18235,90.58649789,-1233.223156,60.28608398,64.94356688,59.59000857,66.58136619,-0.013916016,-0.026433123,0.01000857,0.011366192
201,10,1.1,2,18.10344828,3024,-7644,702,-41,-64,175,-1182,-3446,-74,1669,70,-2046,60.24067383,64.8365121,59.63612917,66.63523001,-0.045410156,-0.107054773,0.046120601,0.053863817
201,10,1.1,2,18.96551724,2464,-8856,394,-15,-80,441,-947,-3685.118832,-694.0915698,1924.196873,-81.86746002,-2736.02174,60.24,64.78071335,59.67989379,66.67675895,-0.000673828,-0.055798757,0.043764616,0.04152894
201,10,1.1,2,19.82758621,1909.003875,-8562.785455,682,-22,-115.5715935,591.1675458,-712,-3784,-1006,2199,-376,-3356,60.24,64.76300781,59.7,66.73734393,0,-0.017705534,0.020106213,0.060584976
201,10,1.1,2,20.68965517,1486,-8144,970,-29,-141,660,-1024,-3572,-976,2551,-830,-3887,60.24,64.8190625,59.7,66.88108503,0,0.056054687,0,0.143741101
201,10,1.1,2,21.55172414,1263.877224,-7887.214545,624,-11.4826087,-120,640.859375,-1430.623309,-3414.858136,-1016,2765.986422,-1198.182844,-4276.211121,60.24,64.80679261,59.7,67.01691785,0,-0.012269887,0,0.13583282
201,10,1.1,2,22.4137931,1128,-7756,278,22,-99,604,-1678,-3336,-1056,2920,-1420,-4633,60.24,64.71031388,59.7,67.14332637,0,-0.096478734,0,0.126408526
201,10,1.1,2,23.27586207,1064,-7826,568,62,-123,559,-1674,-3803.257143,-906.374359,3029.878079,-1480.382789,-5032.499655,60.24,64.57849164,59.7,67.29252976,0,-0.131822243,0,0.149203383
201,10,1.1,2,24.13793103,422,-8308,754,52,-167,493,-1670,-4594,-730,3118,-1504,-5416,60.23742188,64.46694336,59.7,67.41969325,-0.002578125,-0.111548277,0,0.127163489
201,10,1.1,2,25,160,-8454,804,17,-143,420,-1863.422109,-5344.000592,-693.8451532,3196.600504,-1435.746845,-5751.920788,60.189375,64.41601563,59.7,67.51664767,-0.048046875,-0.050927734,0,0.096954425
201,10,1.1,2,25.86206897,518,-8298,810,-17,-82,183,-2136,-5926,-666,3268,-1314,-6049,60.18,64.47001221,59.7,67.59427742,-0.009375,0.053996587,0,0.077629748
201,10,1.1,2,26.72413793,902.685588,-7984.218014,936.8537154,-47.27707074,-114.3898305,54.89330596,-2262,-6144,-624,3336,-1195,-6294,60.18,64.61790556,59.7,67.62966658,0,0.147893344,0,0.03538916
201,10,1.1,2,27.5862069,1122,-7766,1106,-79,-160,-44,-2344,-6338,-490,3424,-975,-6655,60.1444043,64.58787086,59.7,67.63,-0.035595703,-0.030034693,0,0.000333421
201,10,1.1,2,28.44827586,593,-8006,1199.761468,-120.9241995,-186.6101695,-131.9594143,-2378.095041,-6475.345192,-541.2456622,3467.968281,-788.3672346,-6947.068523,60.12,64.53739054,59.7,67.62545695,-0.024404297,-0.050480319,0,-0.004543049
201,10,1.1,2,29.31034483,64,-8246,1246,-162,-200,-227,-2412,-6570,-636,3508,-663,-7184,60.12,64.49637985,59.7,67.57221046,0,-0.041010696,0,-0.053246489
201,10,1.1,2,30.17241379,457,-7901,1144.873882,-194.1982143,-169.5,-375.1952145,-2508.015615,-6615.877613,-756.50976,3569.637324,-604.7524541,-7373.385443,60.10783788,64.45546687,59.7,67.52353549,-0.012162122,-0.040912976,0,-0.048674967
201,10,1.1,2,31.03448276,850,-7556,912,-219,-139,-540,-2658.536259,-6642.024905,-908.5086755,3644.717377,-559.0477719,-7539.920999,60.06382054,64.41422933,59.7,67.47585063,-0.044017341,-0.041237546,0,-0.04768486
201,10,1.1,2,31.89655172,378,-8760,422,-234,-151,-683,-2807.288774,-6673.159744,-1038.753253,3722.438741,-528.8192037,-7682.246055,60.01813817,64.37056039,59.70651847,67.38667573,-0.045682363,-0.04366894,0.006518467,-0.089174901
201,10,1.1,2,32.75862069,381,-8582.057923,592.6158401,-238.8976653,-166.1234705,-799.213732,-2898,-6734,-1094,3792,-517,-7799,60,64.32739054,59.72523409,67.26565821,-0.018138174,-0.043169843,0.018715626,-0.121017522
201,10,1.1,2,33.62068966,384,-8278,914,-244,-184,-917,-2928,-7012,-876,3849,-516,-7884,60,64.28637985,59.74989331,67.1795989,0,-0.041010696,0.024659213,-0.086059315
201,10,1.1,2,34.48275862,268,-8016,1282,-262,-206,-1067,-2973.282297,-7389.513489,-883.3321033,3840.819054,-577.2240185,-7959.0249,59.98783788,64.23965194,59.77840425,67.17,-0.012162122,-0.046727904,0.028510947,-0.009598897
201,10,1.1,2,35.34482759,478,-7686,1268,-289,-218,-1211,-3032,-7838,-908,3819,-736,-7999,59.94382054,64.20047018,59.81631703,67.17,-0.044017341,-0.039181763,0.037912778,0
201,10,1.1,2,36.20689655,878,-8062,910,-346,-238,-1370,-3110,-8360,-1430,3740,-1248,-7864,59.89813817,64.2,59.86186183,67.17,-0.045682363,-0.000470181,0.045544795,0
201,10,1.1,2,37.06896552,830.0784024,-8762.323882,1020.962963,-402.9891694,-306.140665,-1407.166852,-3584.149784,-8950.551968,-1997.020627,3575.94389,-1834.713027,-7559.330959,59.88,64.2,59.88,67.17577041,-0.018138174,0,0.018138174,0.005770405
201,10,1.1,2,37.93103448,691.3619989,-9780.307902,1298.37037,-458.9469291,-431.7800512,-1426.462056,-4470,-9546,-2496,3342,-2390,-7152,59.88,64.2,59.88,67.23019744,0,0,0,0.05442703
201,10,1.1,2,38.79310345,469.4233732,-10917.50979,1659,-515.5000855,-583.7519182,-1437.089293,-5870,-10084,-2818,3034,-2807,-6726,59.84203125,64.22214844,59.92512052,67.21785156,-0.03796875,0.022148437,0.045120517,-0.012345873
201,10,1.1,2,39.65517241,171.835109,-11975.48728,2019.62963,-574.2754452,-730.8900256,-1448.252242,-7640,-10602,-3312,2479,-3268,-5905,59.76,64.27,60.06,67.17,-0.08203125,0.047851563,0.134879483,-0.047851563
201,10,1.1,2,40.51724138,-193.83021,-12755.79811,2297.037037,-636.8998145,-842.028133,-1469.154584,-8742,-10866,-3770,2065,-3473,-5239,59.82995885,64.14757202,60.14657968,67.27746416,0.069958848,-0.122427984,0.086579685,0.107464158
201,10,1.1,2,41.37931034,-620,-13060,2408,-705,-886,-1509,-10532,-11118,-3864,1439,-3550,-4080,59.87824219,64.07503906,60.17742188,67.42156086,0.04828334,-0.072532954,0.03084219,0.1440967
201,10,1.1,2,42.24137931,-1534,-11948,1410,-786,-692,-1743,-11676,-11164,-3308,1058,-3385,-3243,59.8378125,64.3553125,60.129375,67.52029811,-0.040429687,0.280273437,-0.048046875,0.098737254
201,10,1.1,2,43.10344828,-487,-11135.6478,597.2286986,-913.5747657,-700.6036585,-1869.717916,-13526,-10426,-2180,460,-2823,-1901,59.79734176,64.36570313,60.12715681,67.58213285,-0.040470735,0.010390625,-0.002218185,0.061834739
201,10,1.1,2,43.96551724,560,-10730,176,-1028,-726,-2011,-14033.8532,-9000.229675,-1834.712634,-111.3754061,-2176.614157,-738.1649824,59.76,64.27,60.16249159,67.61930848,-0.037341765,-0.095703125,0.035334779,0.037175632
201,10,1.1,2,44.82758621,-774,-11206,1034,-1079,-879,-2366,-14224,-8020,-1702,-610,-1581,280,59.72478441,64.35833706,60.21001966,67.65814653,-0.035215593,0.088337065,0.047528061,0.038838051
201,10,1.1,2,45.68965517,-1500,-11810,944,-1116,-814,-2591,-13614,-8604,-2826,-972,-1168,1109,59.6888739,64.41,60.25124773,67.73577887,-0.035910512,0.051662935,0.041228074,0.077632334
201,10,1.1,2,46.55172414,-568,-12374,1018,-1119,-800,-3056,-13875.85185,-8708.759769,-2707.583487,-991.8101042,-965.0059681,2458.996017,59.65087263,64.41,60.28915544,67.91213286,-0.038001265,0,0.037907709,0.176353996
201,10,1.1,2,47.4137931,-38,-11880,1552,-1128,-937,-3284,-14362.14815,-8758.240406,-2369.611418,-1002.071719,-820.5316867,3971.164675,59.61059816,64.41,60.32940184,67.91377067,-0.040274473,0,0.040246406,0.001637805
201,10,1.1,2,48.27586207,-611,-11976.97059,1209,-1144.825091,-981.5928165,-3593.332606,-14624,-8852,-1838,-1005,-610,4688,59.58034958,64.41,60.35965042,67.86453612,-0.030248577,0,0.030248577,-0.049234546
201,10,1.1,3,49.13793103,-1184,-12216,866,-1171,-999,-3909,-9711.15137,-9391.271276,1031.948089,-926,-130.0008388,3793,59.58,64.28541504,60.36,67.81605814,-0.00034958,-0.124584961,0.00034958,-0.04847798
201,10,1.1,3,50,-1141,-13205.53429,978,-1221.269449,-995.9088608,-4152.979729,-1212,-9856,3592,-847,458,2898,59.57612533,64.21291992,60.36,67.76478088,-0.003874669,-0.072495117,0,-0.051277267
201,10,1.1,3,50.86206897,-1098,-14056,1090,-1280,-987,-4390,8290.15137,-9721.864507,217.1089799,-1684,1055.272366,3009.625117,59.53274102,64.32708008,60.36,67.71405046,-0.043384312,0.114160156,0,-0.050730415
201,10,1.1,3,51.72413793,-1969,-14060.49512,495,-1334.439433,-792.5911392,-4662.834814,14206,-9404,-5192,-2521,1402,3255,59.48904824,64.34,60.38214126,67.67293247,-0.043692775,0.012919922,0.022141258,-0.041117992
201,10,1.1,3,52.5862069,-2840,-14062,-100,-1365,-604,-4946,6410,-8668,-9034,-2046,129,3700,59.46,64.34,60.42,67.63,-0.029048244,0,0.037858742,-0.042932469
201,10,1.1,3,53.44827586,-1258,-13372,430,-1162,-880,-5225,-3338,-7698,-4372,-1342,-1051,3996,59.46,64.37055501,60.42,67.5469415,0,0.030555015,0,-0.083058504
201,10,1.1,3,54.31034483,-617.0027949,-12873.79297,615.5078595,-1044.985671,-1147.14685,-5433.632536,-6622.393005,-6066.525352,-1025.552081,-1510.775649,-101.5,4482.900594,59.46,64.43148231,60.42645996,67.42914006,0,0.060927293,0.006459961,-0.117801433
201,10,1.1,3,55.17241379,16,-12626,778,-975,-1372,-5679,-7916,-4990,646,-1725,848,4802,59.46,64.52851769,60.48354004,67.26876519,0,0.097035384,0.057080078,-0.16037487
201,10,1.1,3,56.03448276,1646.75093,-13778.54325,1040.459137,-940.1371308,-1553.098725,-6343.172329,-7790,-8796,660,-1789,650,3800,59.46,64.58944499,60.49,67.20586344,0,0.060927293,0.006459961,-0.062901752
201,10,1.1,3,56.89655172,3564,-15804,1470,-925,-1649,-6844,-4374.951456,-8799.124262,-707.8431112,-1694.301997,599.8793227,3498.622836,59.46,64.62,60.49,67.17,0,0.030555015,0,-0.03586344
201,10,1.1,3,57.75862069,5256.599547,-18177.45675,3161.429325,-1222.021392,-1652.255193,-6730.898371,-1070,-8800,-2656,-1467,542,3356,59.46,64.5836,60.50318975,67.1259304,0,-0.0364,0.013189749,-0.0440696
201,10,1.1,3,58.62068966,6194,-19678,4570,-1588,-1656,-6477,-2950,-8204,-3592,-917,76,3308,59.46,64.4968,60.52940229,67.08027518,0,-0.0868,0.026212539,-0.045655224
201,10,1.1,3,59.48275862,5826,-18884,4148,-1682,-2156,-5985,-5034,-7456,-1610,-647,114,2981,59.46,64.3932,60.54860255,67.03391431,0,-0.1036,0.019200267,-0.04636087
201,10,1.1,4,60.34482759,2421.247519,-15461.08428,4755,-1629.735995,-2629.563251,-5054.82318,-5304,-7218,792,-595,283,2396,59.46,64.3064,60.55,66.97925689,0,-0.0868,0.001397446,-0.054657411
201,10,1.1,4,61.20689655,-1904,-9900,5362,-1559,-3193,-3714,-4816,-7854,1384,-645,285,2098,59.46,64.27,60.55,66.94,0,-0.0364,0,-0.039256894
201,10,1.1,4,62.06896552,-3806,-3120,5182,-1531,-4124,-1763,-4708,-8404,184,-528,224,1712,59.50101563,64.27,60.55,66.9946875,0.041015625,0,0,0.0546875
201,10,1.1,4,62.93103448,4394,-7224,-908,-1819,-2852,-2607,-4268,-8116,-1220,-464,220,1436,59.52,64.26019744,60.5584022,67.02,0.018984375,-0.009802565,0.008402198,0.0253125
201,10,1.1,4,63.79310345,4007.599727,-6287.98483,-1115.357371,-1221.162869,-1285.887548,-2463.846492,-4104.035773,-8097.202837,-1169.850554,-296.8918221,158.8241277,1157.972445,59.52,64.20577041,60.60505394,67.02,0,-0.05442703,0.04665174,0
201,10,1.1,4,64.65517241,3040,-4510,-1176,-341,191,-2120,-3994,-8084,-1066,-117,75,894,59.5444043,64.29519407,60.56119141,67.02,0.024404297,0.089423661,-0.043862532,0
201,10,1.1,4,65.51724138,314,-2424,-174,134,1209,-1286,-3895.309648,-8050.651657,-900.91574,-2.732550915,21.837023,640.3283017,59.58,64.49049457,60.49,67.01951802,0.035595703,0.195300503,-0.071191406,-0.000481982
201,10,1.1,4,66.37931034,-134,-2324,990,354,1227,-545,-3816.128138,-8001.163394,-654.2698767,104.1408802,-29.45834912,384.0788647,59.58,64.56944732,60.49,66.97841154,0,0.078952747,0,-0.041106482
201,10,1.1,4,67.24137931,-44,-1784,2460,675,942,600,-3739.691804,-7943.949301,-376.7661435,193.2805868,-73.17223275,145.4652768,59.58,64.6492485,60.49553711,66.92480861,0,0.079801182,0.005537109,-0.053602925
201,10,1.1,4,68.10344828,132.4806234,-2176.5,2066.358575,906.4549913,812.1732902,1542.462863,-3649.23698,-7887.423472,-119.1082735,254.3468623,-103.5907442,-55.29887412,59.58,64.75084821,60.54446289,66.87444502,0,0.101599713,0.048925781,-0.050363595
201,10,1.1,4,68.96551724,387.3179659,-3040,1190.122868,1105.43831,710.3207024,2401.149635,-3528,-7840,68,277,-115,-198,59.58,64.73152832,60.55,66.89066332,0,-0.019319891,0.005537109,0.016218303
201,10,1.1,4,69.82758621,669.4963255,-3903.5,288.3257261,1275.202474,643.8077634,3167.761589,-3335.177194,-7797.212317,203.628864,260.5555556,-106.8943422,-303.0729751,59.58059841,64.69108091,60.55,66.94481305,0.000598412,-0.040447411,0,0.054149729
201,10,1.1,4,70.68965517,928,-4296,-182,1419,620,3834,-3057.610506,-7752.013989,334.6805015,219.4444444,-85.99522836,-400.902297,59.62285365,64.77568119,60.55,67.00334916,0.042255241,0.084600282,0,0.058536115
201,10,1.1,4,71.55172414,1164.065396,-4075,-244.0022539,1532.646519,819.7342507,4393.871472,-2720.004689,-7708.949303,452.1991731,166,-57.42944785,-486.1988131,59.64,64.85066321,60.54502544,67.0162212,0.017146346,0.074982017,-0.004974557,0.012872038
201,10,1.1,4,72.4137931,1368,-3854,-304,1633,1087,4862,-2347.064497,-7672.56255,547.2291396,112.5555556,-26.32379005,-553.6733707,59.64,64.89192591,60.50202727,66.9806623,0,0.041262699,-0.042998168,-0.035558901
201,10,1.1,4,73.27586207,1506,-3944,-496,1737,1188,5242,-1963.494682,-7647.398019,610.8146617,71.44444444,2.194955692,-598.0368172,59.64,64.92865234,60.44712192,66.92482742,0,0.036726436,-0.054905353,-0.055834877
201,10,1.1,4,74.13793103,1565.004255,-4388.954644,-859.5248042,1894.463607,1141.280753,5654.839216,-1594,-7638,634,55,23,-614,59.64,64.97,60.42,66.87,0,0.041347658,-0.027121921,-0.054827423
201,10,1.1,4,75,1624,-5076,-1108,2072,1035,6074,-1137.382726,-7757.777778,580.0740741,58.11111111,38.54295919,-558.7116564,59.64,65.0596609,60.42,66.80867089,0,0.089660904,0,-0.061329109
201,10,1.1,4,75.86206897,1807.624434,-5917.710786,-1028.916667,2276.304841,801.0073014,6482.202484,-660.469141,-7980.222222,479.9259259,63.88888889,51.92640917,-431.4233129,59.63335311,65.12918243,60.41428715,66.7977261,-0.006646892,0.069521522,-0.005712855,-0.010944787
201,10,1.1,4,76.72413793,1948,-6486,-848,2398,497,6874,-440,-8100,426,67,59,-290,59.58814801,65.16830475,60.37005501,66.8568158,-0.045205096,0.039122319,-0.04423214,0.059089691
201,10,1.1,4,77.5862069,1835.71028,-6549.264037,-327.0833333,2390,245.400272,7240.876062,-455.4175109,-7915.786408,501.7751092,52.5,60.47846301,-139.5746072,59.544488,65.27483381,60.30371879,66.95266212,-0.04366001,0.106529066,-0.066336217,0.095846323
201,10,1.1,4,78.44827586,1678,-6572,92,2382,-3,7580,-492,-7676,646,23,62,22,59.52,65.41031232,60.23543444,67.01959225,-0.024488002,0.135478511,-0.06828435,0.066930134
201,10,1.1,4,79.31034483,1606,-6470,-964,2394,-258,7877,-574.073757,-7570.601942,854.6220281,-17.31808279,77.16504854,177.5570945,59.52,65.51378384,60.19983589,66.98056422,0,0.103471515,-0.035598545,-0.039028032
201,10,1.1,4,80.17241379,1219.079693,-6487.298246,-2191.356695,2477.257319,-198.1114748,8062.385889,-727.9275429,-7491.300971,1098.644347,-71.8583878,102.5825243,329.8913782,59.52,65.52088027,60.16244068,66.90134761,0,0.007096427,-0.037395216,-0.079216606
201,10,1.1,4,81.03448276,888,-6528,-2910,2588,-55,8176,-942,-7460,1216,-131,116,462,59.52,65.41164096,60.12178243,66.75155003,0,-0.109239306,-0.04065825,-0.149797589
201,10,1.1,4,81.89655172,1092,-6620,-2800,2651,286,8219,-1510.082002,-7668,1087.698795,-199.6421569,113.5,573.3539387,59.5244219,65.3769387,60.12,66.54860625,0.004421903,-0.034702258,-0.001782427,-0.202943781
201,10,1.1,4,82.75862069,1872,-7286,-1702,2643,902,8294,-1958,-7876,848,-263,111,659,59.54057202,65.35919254,60.11938938,66.42,0.016150122,-0.017746164,-0.000610625,-0.128606246
201,10,1.1,4,83.62068966,2290.355063,-8326.722926,-977.5394235,2548.783167,1317.734891,8297.85,-1396,-7844,580,-302,218,710,59.56539014,65.34214729,60.06089151,66.42,0.02481811,-0.017045247,-0.058497863,0
201,10,1.1,4,84.48275862,2678,-8998,-628,2396,1686,8299,-1230,-8212,644,-344,260,876,59.60573894,65.30942513,59.95842866,66.42,0.04034881,-0.032722161,-0.102462854,0
201,10,1.1,4,85.34482759,3251.702832,-8936.296296,-847.8518519,2263.860988,2083.729143,8207.446917,-1041.502839,-8249.961803,755.5742025,-375.9432227,263.2600838,1034.715717,59.68242684,65.26400743,59.8852758,66.42,0.076687896,-0.045417697,-0.07315286,0
201,10,1.1,4,86.20689655,3931.505803,-8821.703704,-1256.148148,2125.381887,2484.813215,7981.671613,-932,-8262,830,-407,265,1184,59.72748178,65.31694336,59.88664723,66.41478381,0.045054935,0.052935926,0.001371431,-0.005216189
201,10,1.1,4,87.06896552,4624,-8760,-1476,1975,2890,7695,-1282,-7710,830,-445,267,1317,59.76444953,65.39940618,59.91330959,66.39226129,0.036967755,0.082462824,0.02666236,-0.022522517
201,10,1.1,4,87.93103448,5306,-9236,-1396,1801,3302,7262,-1552.314061,-7751.284427,841.9361702,-524.8723696,316.058857,1444.472925,59.81730308,65.34296296,59.9491518,66.35766283,0.052853545,-0.05644322,0.035842209,-0.034598464
201,10,1.1,4,88.79310345,6074.048753,-9719.562945,-986.6449988,1622.406068,3299.727475,6854.359275,-1756,-7852,878,-638,386,1562,59.87684321,65.2461157,59.98193406,66.31727111,0.059540135,-0.09684726,0.032782259,-0.040391716
201,10,1.1,4,89.65517241,6958,-9990,-480,1430,3293,6420,-1878,-8110,1130,-783,424,1661,59.9309125,65.18232629,59.99941657,66.27736884,0.054069288,-0.063789409,0.017482512,-0.03990227
201,10,1.1,4,90.51724138,8166.511245,-9825.591837,-152.7687943,1194.553769,2961.06798,5884.770382,-1494,-7946,1406,-866,495,1719,59.97870252,65.18,59.99842397,66.23453798,0.047790018,-0.002326293,-0.000992601,-0.042830867
201,10,1.1,4,91.37931034,9314,-9566,14,964,2403,5298,-1572,-8702,1472,-1025,572,1798,60,65.18274348,59.99206959,66.17838919,0.021297484,0.002743484,-0.006354375,-0.056148783
201,10,1.1,4,92.24137931,10008,-9390,-32,789,1928,4694,-1694,-8568,1528,-1080,589,1852,60,65.23925926,59.98092713,66.12073504,0,0.056515775,-0.011142461,-0.057654153
201,10,1.1,4,93.10344828,10610,-9194,-168,544,1191,3647,-1462.912,-8763.166093,1254.064,-1174.794137,597.4836141,1944.152303,60.009375,65.26,59.96508594,66.07403554,0.009375,0.020740741,-0.015841191,-0.046699499
201,10,1.1,4,93.96551724,10648.30862,-9229.3125,-528.9963211,303.8255029,563.920985,2682.261572,-911.856,-9263.89828,600.832,-1305.172594,604.6540658,2071.965399,60.05742188,65.26,59.94463537,66.05075072,0.048046875,0,-0.020450566,-0.023284821
201,10,1.1,4,94.82758621,10661.65461,-9307,-1081.830063,59.3171137,-38.79245776,1762.192636,-254.144,-9943.04742,-178.832,-1452.153982,610.1827106,2227.502343,60.06,65.26,59.87527446,66.05,0.002578125,0,-0.069360912,-0.000750721
201,10,1.1,4,95.68965517,10674.1733,-9384.6875,-1588.248774,-130.5998324,-492.1096717,846.5273822,296.912,-10673.46437,-832.064,-1596.756914,613.7409035,2402.826192,60.06,65.26124719,59.82229595,66.05,0,0.001247189,-0.052978513,0
201,10,1.1,4,96.55172414,10710,-9420,-1810,-207,-671,-105,528,-11328,-1106,-1720,615,2590,60.06,65.29821887,59.86748219,66.05,0,0.036971679,0.045186241,0
201,10,1.1,4,97.4137931,12501.92918,-2775,1709,-130.5,-201,-1024.827884,524.0265748,-11987.38614,-720.375,-1820.800757,610.5022561,2795.739671,60.07251781,65.42228388,59.87006158,66.06134623,0.01251781,0.12406501,0.002579393,0.011346229
201,10,1.1,4,98.27586207,15502,3870,5228,-54,269,-2149,510.0708661,-12710.98445,128,-1913.149319,596.5893495,3035.102648,60.11770405,65.67765572,59.82616504,66.11243457,0.045186241,0.255371842,-0.043896544,0.051088339
201,10,1.1,4,99.13793103,18038,-9820,-3360,-1375,134,-4107,483.0797244,-13339.59054,976.375,-2000.673222,572.6317682,3312.664302,60.12,65.69,59.80347098,66.14623481,0.00229595,0.012344279,-0.02269406,0.033800245
201,10,1.1,4,100,7804,-10478,-128,-567,-333,-3970,440,-13714,1362,-2087,538,3633,60.1204541,65.6888458,59.78806548,66.17711136,0.000454102,-0.001154196,-0.015405497,0.030876543
201,10,1.1,1,0,3986,-8594,-2316,-901,-401,-3939,-162,-13848,1184,-2171,392,4068,60.15722168,65.59618181,59.77130152,66.19706424,0.036767578,-0.092663995,-0.01676396,0.019952887
201,10,1.1,1,0.854700855,652.4193642,-8633.925926,-2250.878295,-1099.979883,-377.6867223,-3876.509314,463.8518519,-14437.51268,1299.557293,-2273.987512,197.072097,4352.820657,60.19887087,65.49217511,59.74396188,66.2,0.041649195,-0.104006702,-0.027339637,0.002935758
201,10,1.1,1,1.709401709,-2260.456985,-8708.074074,-2082.201034,-1251.045497,-313.4845558,-3800.810213,1626.148148,-15402.85334,1565.336809,-2377.104867,-4.90839594,4584.945027,60.2363489,65.40598173,59.70372134,66.2,0.037478023,-0.086193378,-0.040240548,0
201,10,1.1,1,2.564102564,-3508,-8748,-1850,-1311,-217,-3764,2252,-16152,1860,-2424,-98,4855,60.27989379,65.36330332,59.66010621,66.28161001,0.04354489,-0.042678408,-0.043615123,0.081610014
201,10,1.1,1,3.418803419,-158.0575496,-5624,-1327.517249,-1015,165.4392293,-4089.074684,1819.984217,-16586.92725,2250.164712,-2271.460123,-0.361480496,5226.636876,60.3,65.31672741,59.64,66.35,0.020106213,-0.046575907,-0.020106213,0.068389986
201,10,1.1,1,4.273504274,5954,-2500,-768,-719,493,-4711,896,-16800,2506,-2040,209,5643,60.3,65.21998974,59.64,66.35,0,-0.096737674,0,0
201,10,1.1,1,5.128205128,12334,-7672,-522,-1090,466,-5456,-841.4170107,-15743.27455,2269,-1866.539877,588.9256094,6055.275784,60.28608398,65.14998735,59.64,66.36623535,-0.013916016,-0.070002394,0,0.016235352
201,10,1.1,1,5.982905983,10266,-7128,-2318,-1014,-274,-4435,-2690,-14414,2032,-1772,1030,6492,60.24067383,65.11044455,59.64,66.41921387,-0.045410156,-0.039542799,0,0.052978516
201,10,1.1,1,6.837606838,4197.983056,-8530,-1695.267003,-908.0564655,-251.9197938,-3943.993094,-3646,-14034,2088,-1942,1337,6980,60.24,65.11,59.60735599,66.42,-0.000673828,-0.000444547,-0.032644006,0.000786133
201,10,1.1,1,7.692307692,-448,-9932,-768,-768,-187,-3730,-5967.626784,-15709.78159,2514.373308,-2189.718935,1826.92801,7025.67079,60.24257813,65.11,59.58,66.42,0.002578125,0,-0.027355994,0
201,10,1.1,1,8.547008547,1674,-7186,-248,-558,195,-3794,-7666,-18588,3358,-2346,2373,7040,60.290625,65.11,59.58,66.42,0.048046875,0,0,0
201,10,1.1,1,9.401709402,2023.561889,-7347.875,-553.3125,-461.6077291,137.1875,-3610.220966,-7106,-21106,4832,-2299,2838,6044,60.28444444,65.0811296,59.58,66.43814815,-0.006180556,-0.028870399,0,0.018148148
201,10,1.1,2,10.25641026,2195.089453,-7704,-1225,-396.1990424,10,-3168.839242,-6903.12796,-19597.64817,4331.232201,-2196.820963,2809.25846,5016.795609,60.24205761,64.98360216,59.58,66.48759945,-0.042386831,-0.09752744,0,0.049451303
201,10,1.1,2,11.11111111,2331.57229,-8060.125,-1896.6875,-339.1908345,-117.1875,-2634.787897,-6798.234652,-15954.89511,3133.452536,-2024.539912,2722.355894,3964.971092,60.27,64.92386115,59.58,66.49,0.027942387,-0.059741006,0,0.002400549
201,10,1.1,2,11.96581197,2576,-8222,-2202,-268,-175,-2173,-6679.724018,-11501.1945,1695.446603,-1778.988905,2576.27538,3005.161029,60.3,64.9,59.57971968,66.49072353,0.03,-0.023861154,-0.00028032,0.00072353
201,10,1.1,2,12.82051282,3253.509636,-8118.683713,-1450.666667,-158.9490225,-158.7760179,-1801.207218,-6436,-7560,474,-1457,2370,2254,60.3,64.9,59.57129088,66.5133806,0,0,-0.0084288,0.022657074
201,10,1.1,2,13.67521368,4149.199262,-7914.922982,-55.33333333,-38.43794465,-128.3298136,-1447.200093,-4293.048435,-4092.703013,-644.2262682,-616.3264669,1082.176545,1771.651186,60.3,64.9,59.55537408,66.55962249,0,0,-0.0159168,0.046241886
201,10,1.1,2,14.52991453,4596,-7770,696,41,-111,-1141,-2122,-1284,-1282,235,-239,1309,60.3,64.9,59.53772928,66.61833888,0,0,-0.0176448,0.058716387
201,10,1.1,2,15.38461538,4394,-7726,132,70,-110,-904,-1880,188,-880,501,-427,630,60.26735599,64.9,59.52411648,66.67841945,-0.032644006,0,-0.0136128,0.060080576
201,10,1.1,2,16.23931624,4022,-7848,-540,162,-16,-581,-156.6866344,-28.55161537,834.0464574,819.4665166,-336.9296389,-166.2219658,60.24,64.9,59.52,66.72965304,-0.027355994,0,-0.00411648,0.051233591
201,10,1.1,2,17.09401709,3686,-7780,114,232,-16,-342,1372,-506,2248,1169,-159,-990,60.24,64.9,59.52,66.78729024,0,0,0,0.057637196
201,10,1.1,2,17.94871795,3900,-8146,662,229,-35,5,216,-1380,2118,1542,75,-1759,60.24,64.9,59.52,66.84228394,0,0,0,0.054993701
201,10,1.1,2,18.8034188,3303.70945,-8289.241493,643,236.5,-48.68634391,188.7331622,-1044.087692,-2343.52431,676.1182456,1951.803941,141.0893855,-2635.186569,60.24,64.9,59.52,66.86972943,0,0,0,0.027445492
201,10,1.1,2,19.65811966,2638,-8348,624,244,-65,342,-1766,-3096,-686,2321,166,-3384,60.24,64.94152832,59.52,66.87,0,0.04152832,0,0.000270566
201,10,1.1,2,20.51282051,2558.678004,-8278.659919,1070,221.6445087,-113.5603448,559.9736342,-1686.752,-3470.203943,-730.8039044,2611.455989,-48.864,-3860.041304,60.24,64.97,59.52444444,66.88579975,0,0.02847168,0.004444444,0.015799752
201,10,1.1,2,21.36752137,2482,-8150,1516,179,-151,706,-1497.776,-3739.109529,-755.5553692,2879.277961,-561.232,-4245.606314,60.24,64.97,59.56868313,67.07321573,0,0,0.044238683,0.187415979
201,10,1.1,2,22.22222222,1984.612546,-8022.888261,1212.5089,114.8554913,-133.24,730.7738693,-1272.224,-3956.313144,-770.7048819,3115.971939,-1172.768,-4575.850671,60.25391602,64.94664667,59.56608398,67.24479363,0.013916016,-0.023353329,-0.002599143,0.171577903
201,10,1.1,2,23.07692308,1554,-7854,762,71,-103,740,-1083.248,-4175.411172,-786.7029297,3313.043944,-1685.136,-4885.930018,60.29932617,64.83903194,59.52067383,67.38606498,0.045410156,-0.107614736,-0.045410156,0.141271348
201,10,1.1,2,23.93162393,1686,-7484.45182,447.4911003,81,-70.76,665.583815,-1004,-4450,-814,3462,-1900,-5211,60.3,64.74968766,59.52,67.51762642,0.000673828,-0.08934428,-0.000673828,0.131561439
201,10,1.1,2,24.78632479,1818,-7216,280,91,-51,583,-1373.828708,-4849.399583,-871.9919185,3578.501633,-1890.380426,-5551.469585,60.29797058,64.67920058,59.52,67.66414423,-0.002029421,-0.070487078,0,0.14651781
201,10,1.1,2,25.64102564,1492,-8140,778,88,-95,573,-2201.709888,-5323.365866,-952.2150387,3679.020933,-1861.097803,-5883.551714,60.25501881,64.63624529,59.52,67.86558462,-0.042951766,-0.042955289,0,0.201440389
201,10,1.1,2,26.4957265,892,-8040,572,36,-137,490,-3065.236124,-5746.149216,-1023.330639,3756.279767,-1811.516279,-6206.107986,60.22703413,64.59484567,59.52,67.99794507,-0.027984686,-0.041399617,0,0.132360457
201,10,1.1,2,27.35042735,478,-8014,612,-4,-140,390,-3542,-5992,-1054,3803,-1741,-6518,60.21139416,64.55404776,59.52,68.09,-0.015639961,-0.040797913,0,0.092054925
201,10,1.1,2,28.20512821,587.4074074,-7974.137812,751.0438262,-35.22397682,-139.4814815,246.0496983,-3665.645056,-6066.068103,-779,3829.256222,-1320.119567,-6819.708794,60.19652616,64.51339545,59.52,68.20189107,-0.014868001,-0.040652314,0,0.111891072
201,10,1.1,2,29.05982906,790.5925926,-7930.513351,949.1885797,-63.22680322,-138.5185185,80.35026926,-3718,-6140,-504,3841,-762,-7101,60.17413905,64.47141625,59.52085384,68.24586737,-0.02238711,-0.041979192,0.000853842,0.043976297
201,10,1.1,2,29.91452991,900,-7910,1050,-96,-138,-55,-3220.456747,-6362.276078,-857.8749255,3811.185185,-393.1449439,-7397.581494,60.13323426,64.42745365,59.54726081,68.12203291,-0.040904798,-0.043962602,0.026406967,-0.123834457
201,10,1.1,2,30.76923077,731.4814815,-7933.851852,1045.857588,-148.146942,-166,-131.1073197,-2285.135716,-6718.866238,-1579.305407,3755.814815,-80.73913864,-7677.710605,60.10674115,64.38419002,59.59993829,67.88982524,-0.026493107,-0.043263633,0.052677484,-0.232207669
201,10,1.1,2,31.62393162,418.5185185,-7978.148148,1031.04851,-207.9679582,-218,-191.1193547,-1748,-7090,-2158,3726,51,-7823,60.09046009,64.34153188,59.66439665,67.63594293,-0.016281057,-0.042658136,0.064458354,-0.253882311
201,10,1.1,2,32.47863248,250,-8002,1002,-244,-246,-291,-1712,-7446,-2422,3788,-200,-7847,60.07476626,64.29930763,59.72614622,67.44708455,-0.015693831,-0.042224258,0.061749577,-0.188858384
201,10,1.1,2,33.33333333,660,-7374,198,-253,-227,-594,-2137.508941,-7530.480508,-2400.016529,3812.121622,-704.7091955,-7818.77931,60.0515371,64.2557403,59.77102798,67.4,-0.023229158,-0.04356733,0.044881753,-0.047084548
201,10,1.1,2,34.18803419,256,-8122,-238,-228,-210,-814,-2718,-7596,-2346,3822,-1347,-7754,60.01486947,64.20679955,59.80346747,67.4,-0.036667636,-0.048940748,0.03243949,0
201,10,1.1,2,35.04273504,648,-7428,336,-246,-162,-1046,-2932.659015,-7704.631745,-2125.983471,3708.13783,-2093.198981,-7617.612273,59.97398738,64.2,59.85942369,67.4,-0.040882087,-0.006799547,0.05595622,0
201,10,1.1,2,35.8974359,925.3333333,-7612.9331,690.5367545,-281.4207455,-177.3943597,-1135.384228,-3166,-7860,-1938,3494,-2649,-7412,59.94040301,64.2,59.93473841,67.4,-0.033584368,0,0.075314718,0
201,10,1.1,2,36.75213675,1150.666667,-8002.755088,963.046155,-330.6457589,-209.8998306,-1192.188071,-3849.792939,-8146.218045,-1959.877114,3269.905754,-2856.875869,-7189.065102,59.94,64.2,59.98400719,67.4,-0.000403012,0,0.049268787,0
201,10,1.1,2,37.60683761,1278,-8350,1072,-380,-239,-1270,-5013.452994,-8571.456259,-2021.672304,3004.299996,-3016.500772,-6928.823274,59.93612533,64.20645996,60,67.40439661,-0.003874669,0.006459961,0.015992806,0.004396614
201,10,1.1,2,38.46153846,1320,-8562,772,-425,-257,-1422,-6367.386551,-9052.966344,-2117.631342,2705.54424,-3118.87529,-6609.419808,59.89274102,64.26354004,60,67.45459887,-0.043384312,0.057080078,0,0.050202256
201,10,1.1,2,39.31623932,966,-8589.05988,1037.510821,-465.0753673,-455.1322448,-1438.72266,-7622,-9508,-2242,2382,-3155,-6209,59.85503237,64.27,60.00265242,67.50021211,-0.037708651,0.006459961,0.002652422,0.045613238
201,10,1.1,2,40.17094017,612,-8620,1610,-526,-781,-1446,-8675.591849,-10027.55317,-2654.163848,2017.468783,-3122.1202,-5596.155295,59.82,64.27,60.01540541,67.54218736,-0.035032368,0,0.012752983,0.04197525
